"Time (s)","Linear Acceleration x (m/s^2)","Linear Acceleration y (m/s^2)","Linear Acceleration z (m/s^2)","Absolute acceleration (m/s^2)"
2.672429150E-2,-3.815764296E-1,1.634726545E-1,-1.094978839E-1,4.293176761E-1
3.667729162E-2,-4.707467607E-1,1.417245206E-1,8.083307862E-2,4.982191677E-1
4.662929149E-2,-5.705341735E-1,1.978060430E-1,3.481660241E-1,6.970337540E-1
5.658229161E-2,-5.841614020E-1,1.160926661E-1,4.495216602E-1,7.461848120E-1
6.653529126E-2,-4.625670907E-1,-1.246193683E-1,3.092142123E-1,5.701856973E-1
7.648829138E-2,-4.734127986E-1,-1.400992870E-1,2.220263797E-1,5.413346483E-1
8.644029126E-2,-4.840661332E-1,-2.468343616E-2,1.970494133E-1,5.232186585E-1
9.639329137E-2,-3.551882377E-1,-6.332242191E-3,9.709886312E-2,3.682756722E-1
1.063462915E-1,-2.538226613E-1,-6.544905424E-2,-6.288329601E-2,2.695622953E-1
1.162992916E-1,-2.019987890E-1,-3.795164555E-2,-1.177810496E-1,2.368886106E-1
1.262522913E-1,-1.111055759E-1,4.247885227E-2,-3.153801012E-1,3.370660323E-1
1.362042916E-1,-6.428575069E-2,9.129374743E-2,-5.140445155E-1,5.260313393E-1
1.461572913E-1,-7.074400038E-2,1.416870984E-1,-5.946226555E-1,6.153503473E-1
1.561102914E-1,-6.321571022E-2,2.066189665E-1,-6.943761545E-1,7.272178953E-1
1.660632915E-1,-8.758281201E-2,2.965278009E-1,-6.655762786E-1,7.338877763E-1
1.760152914E-1,-1.081006917E-1,2.616088137E-1,-5.609695905E-1,6.283405227E-1
1.859682915E-1,-1.031922466E-1,1.560347039E-1,-5.195824134E-1,5.522330603E-1
1.959212916E-1,-1.032969117E-2,2.013912633E-1,-4.365209609E-1,4.808489293E-1
2.058742912E-1,6.446409076E-2,2.780374432E-1,-3.904507488E-1,4.836447312E-1
2.158272914E-1,2.784765691E-2,2.721165526E-1,-2.330910659E-1,3.593805159E-1
2.257792912E-1,8.091230839E-3,3.148813337E-1,-1.339936244E-1,3.423010572E-1
2.357322914E-1,-4.826174855E-2,4.179499117E-1,-3.847058594E-2,4.224823203E-1
2.456852915E-1,-3.179540455E-2,4.290958741E-1,5.361487448E-2,4.335997829E-1
2.556382916E-1,4.835749671E-2,3.785946420E-1,1.186283112E-2,3.818547855E-1
2.655902915E-1,1.013883805E-1,3.815705824E-1,-9.688660920E-2,4.065251875E-1
2.755432916E-1,1.495473643E-1,4.509583211E-1,-3.179961455E-1,5.717074165E-1
2.854962912E-1,2.063188581E-1,4.827624965E-1,-6.399151880E-1,8.277188816E-1
2.954492914E-1,2.740211369E-1,4.745033044E-1,-9.441540045E-1,1.091635357E0
3.054022915E-1,2.690251297E-1,4.659318709E-1,-1.229030936E0,1.341634850E0
3.153542913E-1,1.949297976E-1,4.953497976E-1,-1.407136540E0,1.504460797E0
3.253072915E-1,3.224021687E-1,4.857863840E-1,-1.510666755E0,1.619273175E0
3.352602916E-1,4.661499721E-1,4.412633452E-1,-1.659859048E0,1.779646368E0
3.452132912E-1,4.438206249E-1,4.364861700E-1,-1.625444090E0,1.740564683E0
3.551662914E-1,4.483121637E-1,3.828568237E-1,-1.676866844E0,1.777482927E0
3.651182912E-1,5.977209489E-1,3.066187795E-1,-1.900688903E0,2.015912626E0
3.750712913E-1,7.026790546E-1,5.114289097E-1,-1.918621729E0,2.106282679E0
3.850242915E-1,7.137424251E-1,4.213614696E-1,-2.232956933E0,2.381820816E0
3.949772916E-1,7.962628640E-1,2.745237051E-1,-2.305008663E0,2.454070649E0
4.049292915E-1,7.687544187E-1,1.309377234E-1,-2.248784761E0,2.380159857E0
4.148822916E-1,6.327965683E-1,7.107568368E-2,-2.235333826E0,2.324263445E0
4.248352912E-1,2.912533931E-1,3.945174873E-2,-2.377122958E0,2.395224110E0
4.347882913E-1,4.172108236E-1,-2.364321649E-3,-2.905151675E0,2.934957702E0
4.447412915E-1,9.591962591E-1,-3.686083286E-1,-3.313101386E0,3.468799555E0
4.546932913E-1,1.588841105E0,-5.448814152E-1,-3.061367058E0,3.491887752E0
4.646462915E-1,6.958829820E-1,-6.545123233E-1,-3.364405441E0,3.497408108E0
4.745992916E-1,1.672599400E0,-1.847606125E-1,-3.930078532E0,4.275189177E0
4.845522912E-1,2.673194969E0,2.537649201E-1,-3.694032283E0,4.566863528E0
4.945052913E-1,2.320458468E0,1.695392869E-2,-3.296943775E0,4.031705991E0
5.044572917E-1,1.928198299E0,-5.823295424E-1,-2.712417507E0,3.378500423E0
5.144102913E-1,2.606067471E0,-1.005381077E0,-1.628236136E0,3.233192182E0
5.243632914E-1,2.608162236E0,-9.841066403E-1,-6.591724080E-1,2.864521669E0
5.343162916E-1,2.071167692E0,-9.466175826E-1,-1.284407576E0,2.614483367E0
5.442692912E-1,1.897957961E0,-4.634605452E-1,-2.108610045E0,2.874591522E0
5.542212916E-1,1.743272064E0,-8.058857365E-2,-1.963256450E0,2.626759961E0
5.641742917E-1,1.732551633E0,-1.887789105E-2,-1.841587586E0,2.528544319E0
5.741272913E-1,2.076837152E0,-6.528098334E-2,-1.610155376E0,2.628709664E0
5.840802914E-1,2.645139443E0,3.125800889E-2,-1.154011744E0,2.886084344E0
5.940322913E-1,3.042294025E0,2.615649961E-1,-8.553833306E-1,3.171064462E0
6.039852914E-1,3.277946756E0,5.123713713E-1,-6.408396327E-1,3.379073067E0
6.139382916E-1,3.476355939E0,6.584947888E-1,-6.062697244E-1,3.589739403E0
6.238912917E-1,3.702847545E0,4.494859922E-1,-1.153177931E0,3.904220401E0
6.338442913E-1,3.711447045E0,6.226088183E-1,-1.405416874E0,4.017172824E0
6.437962917E-1,3.041015823E0,5.035011086E-1,-1.372101778E-1,3.085468723E0
6.537492913E-1,1.591682413E0,3.160743850E-1,1.617173204E0,2.290983434E0
6.637022914E-1,3.508107197E-1,6.620235103E-1,2.844965115E0,2.941966994E0
6.736552916E-1,-7.772795860E-1,9.230579813E-1,3.699153274E0,3.891006880E0
6.836072914E-1,-1.552590561E0,1.157325215E0,4.295016124E0,4.711380117E0
6.935602915E-1,-1.731107955E0,1.361026713E0,4.393166317E0,4.914167147E0
7.035132917E-1,-1.496043746E0,1.375549004E0,4.053477586E0,4.534419752E0
7.134662913E-1,-1.171156145E0,1.244403266E0,3.732805755E0,4.105360521E0
7.234192914E-1,-7.889483627E-1,1.137207284E0,3.252574518E0,3.534815543E0
7.333712913E-1,-4.070700706E-1,1.230400792E0,2.320416076E0,2.657804154E0
7.433242914E-1,-5.130887881E-1,1.702340823E0,1.079391332E0,2.079978373E0
7.532772915E-1,-7.448306090E-1,2.360243070E0,1.271973472E0,2.782703092E0
7.632302917E-1,-7.577088822E-1,2.435695833E0,2.015732871E0,3.251140715E0
7.731819167E-1,-1.329014523E0,2.212406747E0,2.705837635E0,3.739328887E0
7.831349163E-1,-1.600596932E0,1.708674089E0,1.978235847E0,3.065109255E0
7.930879164E-1,-1.357717481E0,1.338442427E0,1.159709271E0,2.231535454E0
8.030409166E-1,-1.125169987E0,1.286603644E0,1.028756198E0,1.994917480E0
8.129939167E-1,-1.105219872E0,1.515820053E0,6.955952990E-1,2.000768407E0
8.229459166E-1,-1.074810550E0,1.574142374E0,6.248545146E-1,2.005887608E0
8.328989167E-1,-1.098663316E0,1.547708282E0,1.038514616E0,2.163556012E0
8.428519163E-1,-1.119611112E0,1.581853829E0,1.387245482E0,2.383325535E0
8.528049164E-1,-1.051229241E0,1.544244391E0,1.482520598E0,2.384877561E0
8.627579166E-1,-9.345759729E-1,1.399816118E0,1.635983112E0,2.347202198E0
8.727099164E-1,-9.374744377E-1,1.315705090E0,1.900489513E0,2.494353342E0
8.826629166E-1,-1.112674999E0,1.400554037E0,2.087749518E0,2.749235405E0
8.926159167E-1,-1.210797563E0,1.420037544E0,1.982665697E0,2.722774437E0
9.025689163E-1,-1.272390963E0,1.327321754E0,1.753554831E0,2.540810175E0
9.125209167E-1,-1.193176979E0,1.166949293E0,1.802718220E0,2.456671516E0
9.224739163E-1,-1.117106165E0,1.118037919E0,2.153264061E0,2.671044943E0
9.324269164E-1,-1.207913863E0,1.299455386E0,2.556364092E0,3.111693682E0
9.423799166E-1,-1.407570696E0,1.422333746E0,3.270081666E0,3.833760902E0
9.523329167E-1,-1.511621021E0,1.322139951E0,3.203534505E0,3.780963566E0
9.622849165E-1,-1.618686171E0,1.200428988E0,3.495732150E0,4.035011517E0
9.722379167E-1,-1.616604562E0,9.395145312E-1,4.044829554E0,4.456090662E0
9.821909163E-1,-1.196689401E0,5.204054090E-1,4.586499240E0,4.768528346E0
9.921439164E-1,-7.462886122E-1,4.121219918E-1,4.836928470E0,4.911483304E0
1.002096917E0,-4.334005943E-1,7.724794605E-1,4.743504581E0,4.825494411E0
1.012048916E0,-2.838261867E-1,1.283134637E0,4.628594515E0,4.811536032E0
1.022001917E0,-3.456946984E-1,1.946070021E0,4.659524531E0,5.061409113E0
1.031954917E0,-5.982707334E-1,2.684385078E0,4.538408230E0,5.306693922E0
1.041907916E0,-1.016670881E0,3.261713716E0,4.121219333E0,5.353208836E0
1.051859917E0,-1.429786022E0,3.584756885E0,3.642100822E0,5.306568420E0
1.061812916E0,-1.719861713E0,3.639605815E0,3.345078054E0,5.233947075E0
1.071765916E0,-1.827153150E0,3.552547498E0,3.020970984E0,5.008527532E0
1.081718917E0,-1.699368976E0,3.399949788E0,2.727152490E0,4.678127208E0
1.091671917E0,-1.282468640E0,2.816431287E0,2.790157993E0,4.166772448E0
1.101623917E0,-7.109252366E-1,2.146258220E0,2.887601842E0,3.667435539E0
1.111576917E0,-1.503605658E-1,1.708549982E0,2.910538130E0,3.378310753E0
1.121529916E0,3.203856102E-1,1.228557019E0,3.073170247E0,3.325112728E0
1.131482916E0,6.506179315E-1,8.976905671E-1,3.025938193E0,3.222647048E0
1.141435917E0,8.456866005E-1,7.850518513E-1,2.881163473E0,3.103642246E0
1.151387916E0,8.106141239E-1,9.603370509E-1,2.868460397E0,3.131678073E0
1.161340917E0,5.116147050E-1,1.383878362E0,2.786057925E0,3.152616008E0
1.171293917E0,1.651341408E-2,1.734945483E0,2.533866345E0,3.070958673E0
1.181246916E0,-4.856521904E-1,1.975441462E0,2.238763218E0,3.024944259E0
1.191198917E0,-9.038848150E-1,2.153959880E0,1.873601092E0,2.994483591E0
1.201151916E0,-1.144703561E0,2.250193355E0,1.542378545E0,2.958487444E0
1.211104916E0,-1.193225218E0,2.315468162E0,1.149362038E0,2.847141079E0
1.221057917E0,-1.152585608E0,2.338675469E0,6.954081881E-1,2.698416032E0
1.231010917E0,-1.079477578E0,2.242770607E0,3.382304353E-1,2.511909964E0
1.240962917E0,-9.968572980E-1,2.102316394E0,-2.366192758E-2,2.326804371E0
1.250915917E0,-8.991444772E-1,1.932140199E0,-3.953290808E-1,2.167466637E0
1.260868916E0,-8.069888502E-1,1.715169615E0,-7.279608071E-1,2.030508495E0
1.270821916E0,-7.207424194E-1,1.477665655E0,-9.533867580E-1,1.900503021E0
1.280774917E0,-6.475648078E-1,1.304781030E0,-1.080212865E0,1.813464516E0
1.290726916E0,-5.562351000E-1,1.070349782E0,-1.079137563E0,1.618512904E0
1.300679917E0,-3.681614551E-1,7.873661792E-1,-1.126283662E0,1.422674680E0
1.310632917E0,-2.519965759E-1,5.489512235E-1,-1.160224995E0,1.308041192E0
1.320585916E0,-1.683466011E-1,3.324387681E-1,-1.218822867E0,1.274513748E0
1.330538916E0,-8.047347486E-2,1.240334773E-1,-1.393961009E0,1.401780146E0
1.340490916E0,-1.373832554E-2,-3.849602133E-2,-1.561869069E0,1.562403812E0
1.350443916E0,4.952387005E-2,-7.420204371E-2,-1.659304147E0,1.661700577E0
1.360396917E0,3.901642352E-2,-2.182996568E-1,-1.781625559E0,1.795373681E0
1.370349917E0,1.848320948E-1,-3.576567860E-1,-1.547240505E0,1.598760288E0
1.380301917E0,2.971669015E-1,-2.467308658E-1,-1.351143018E0,1.405265720E0
1.390254917E0,4.415941514E-1,-1.686826698E-1,-1.231472148E0,1.319084110E0
1.400207916E0,5.781183046E-1,-1.252061364E-1,-1.147848778E0,1.291299411E0
1.410160916E0,6.346958171E-1,-2.242322418E-1,-1.071359596E0,1.265278729E0
1.420113917E0,7.033824746E-1,-4.139132863E-1,-1.083211318E0,1.356251405E0
1.430065916E0,7.443055290E-1,-6.178717697E-1,-1.156476930E0,1.507711887E0
1.440018917E0,7.865594096E-1,-9.351981166E-1,-1.147503208E0,1.676315852E0
1.449971917E0,8.229229514E-1,-1.201666844E0,-1.146593966E0,1.853613528E0
1.459924916E0,8.195954472E-1,-1.319613369E0,-1.103088927E0,1.905235241E0
1.469877916E0,8.053957763E-1,-1.378383295E0,-9.201441675E-1,1.842625343E0
1.479829916E0,8.579591753E-1,-1.416117863E0,-6.438193738E-1,1.776509818E0
1.489782916E0,9.398302808E-1,-1.389608195E0,-3.099825364E-1,1.705983900E0
1.499735916E0,9.771853642E-1,-1.314723928E0,-1.676689088E-1,1.646664236E0
1.509688917E0,8.874301654E-1,-1.315061604E0,-1.840218168E-1,1.597117200E0
1.519641916E0,7.401244774E-1,-1.382765199E0,-9.780111372E-2,1.571428934E0
1.529593917E0,6.175058801E-1,-1.396493292E0,-7.613834918E-2,1.528824409E0
1.539546916E0,6.173512213E-1,-1.351955635E0,-1.324786109E-1,1.492131747E0
1.549499916E0,7.316477689E-1,-1.381652620E0,4.369624257E-2,1.564027423E0
1.559452916E0,9.412776129E-1,-1.828120425E0,4.967572224E-1,2.115371261E0
1.569405917E0,1.220038210E0,-2.723155918E0,1.078651074E0,3.172941778E0
1.579357916E0,1.368476066E0,-3.557264155E0,1.563168320E0,4.119508491E0
1.589310917E0,1.329730514E0,-3.813020782E0,1.886059754E0,4.456964452E0
1.599263916E0,1.163380445E0,-3.473082960E0,2.015608910E0,4.180722257E0
1.609216916E0,8.332080576E-1,-2.805381511E0,2.185353581E0,3.652419932E0
1.619169916E0,3.190512756E-1,-1.991937773E0,2.027133772E0,2.859874323E0
1.629121916E0,-3.902417108E-1,-1.171861977E0,1.921905525E0,2.284572156E0
1.639074916E0,-8.437080489E-1,-3.125240287E-1,2.149044126E0,2.329786513E0
1.649027917E0,-9.515799683E-1,5.137077159E-1,2.097457650E0,2.359815384E0
1.658980916E0,-6.024074923E-1,1.174097514E0,1.898693249E0,2.312236106E0
1.668933916E0,-3.471373527E-1,1.004666547E0,7.993664199E-1,1.329979656E0
1.678885916E0,3.020063496E-1,6.054481906E-1,8.064959300E-1,1.052716026E0
1.688838916E0,7.335617088E-1,5.658862218E-1,9.870018160E-1,1.353703284E0
1.698791916E0,9.298829976E-1,6.184719864E-1,8.978569204E-1,1.432946976E0
1.708744917E0,1.136997808E0,4.530583486E-1,1.203827097E0,1.716748544E0
1.718697916E0,1.069409696E0,4.216164082E-1,1.421431228E0,1.828076648E0
1.728649917E0,8.932713877E-1,3.971469802E-1,1.544893432E0,1.828210932E0
1.738602916E0,7.724549022E-1,3.285918850E-1,1.479391168E0,1.700957798E0
1.748555916E0,7.891171280E-1,2.846775413E-1,1.235122565E0,1.493075649E0
1.758508916E0,7.147952163E-1,3.073030499E-1,1.013918304E0,1.278044480E0
1.768461292E0,4.611038250E-1,5.518754160E-1,7.054893726E-1,1.007421693E0
1.778413292E0,1.931355795E-1,8.952107629E-1,2.910287869E-1,9.609377799E-1
1.788366292E0,1.330972463E-2,1.239692456E0,-2.434950167E-1,1.263449389E0
1.798319291E0,-1.417613581E-1,1.537645224E0,-7.890677190E-1,1.734092553E0
1.808272291E0,-2.285977730E-1,1.738119059E0,-1.201740811E0,2.125440138E0
1.818225292E0,-2.788136610E-1,1.849013550E0,-1.531826075E0,2.417246220E0
1.828177291E0,-3.874268612E-1,1.889182460E0,-1.681145251E0,2.558389981E0
1.838130292E0,-4.978829576E-1,1.866331834E0,-1.614031495E0,2.517176915E0
1.848083292E0,-4.718187015E-1,1.845607255E0,-1.500184452E0,2.424754094E0
1.858036291E0,-2.706317984E-1,1.835301830E0,-1.507466574E0,2.390403700E0
1.867989291E0,1.144943297E-2,1.723309523E0,-1.481469854E0,2.272593173E0
1.877942292E0,1.495071647E-1,1.571298581E0,-1.427779550E0,2.128352900E0
1.887894291E0,1.597681510E-1,1.419682326E0,-1.498602195E0,2.070466688E0
1.897847292E0,4.568663478E-2,1.217594951E0,-1.496412413E0,1.929734397E0
1.907800292E0,-1.847728917E-1,1.113364532E0,-1.388170511E0,1.789060918E0
1.917753291E0,-4.653278536E-1,1.107046323E0,-1.282858064E0,1.757215520E0
1.927706291E0,-5.892552039E-1,1.067622056E0,-1.158824002E0,1.682234115E0
1.937658291E0,-6.086770231E-1,1.007450114E0,-9.456497222E-1,1.509866500E0
1.947611291E0,-6.029885593E-1,9.962678987E-1,-4.623504514E-1,1.252961639E0
1.957564292E0,-5.201466697E-1,1.091278136E0,2.358743405E-1,1.231696892E0
1.967517292E0,-4.307822111E-1,1.320468817E0,4.106125331E-1,1.448383189E0
1.977470291E0,-4.545856413E-1,1.372328942E0,5.042229474E-1,1.531070087E0
1.987422292E0,-4.909281331E-1,1.352373418E0,7.543919760E-1,1.624509633E0
1.997375291E0,-4.855709141E-1,1.472458125E0,8.595395315E-1,1.772771911E0
2.007328291E0,-2.834575197E-1,1.587591701E0,8.459435856E-1,1.821102997E0
2.017281292E0,6.941522062E-3,1.620937787E0,8.233955526E-1,1.818094533E0
2.027234292E0,2.971364960E-1,1.606641930E0,6.489163917E-1,1.758033240E0
2.037186292E0,4.841114491E-1,1.601993540E0,5.891385520E-1,1.774212904E0
2.047139292E0,4.325501168E-1,1.692621874E0,5.615472955E-1,1.835048712E0
2.057092291E0,8.981820256E-2,1.776313072E0,4.875975591E-1,1.844208995E0
2.067045291E0,-1.345125648E-1,1.697126715E0,4.400953639E-1,1.758413105E0
2.076998292E0,-2.738107833E-1,1.572120407E0,2.703805143E-1,1.618530365E0
2.086950291E0,-3.134242076E-1,1.387800529E0,3.230697745E-1,1.458971939E0
2.096903292E0,-2.903654203E-1,1.252146295E0,3.199795210E-1,1.324601568E0
2.106856292E0,-2.290845537E-1,1.093532677E0,3.912202424E-1,1.183784915E0
2.116809291E0,-1.121908191E-1,8.753803696E-1,5.872072166E-1,1.060042398E0
2.126762291E0,6.673602641E-2,6.411309703E-1,8.123086470E-1,1.036989854E0
2.136715292E0,2.341327474E-1,4.662818268E-1,1.113382366E0,1.229576015E0
2.146667291E0,3.424740520E-1,3.927004650E-1,1.539632108E0,1.625413535E0
2.156620292E0,4.128947014E-1,3.289568974E-1,2.127364404E0,2.191888223E0
2.166573292E0,4.892210385E-1,-1.584047265E-1,2.743142871E0,2.790924953E0
2.176526291E0,5.043732208E-1,-9.432754603E-1,3.070142559E0,3.251143840E0
2.186479291E0,4.092793679E-1,-1.392717014E0,3.119714668E0,3.440899576E0
2.196431291E0,2.375992692E-1,-1.268750487E0,3.088309858E0,3.347213616E0
2.206384291E0,-2.745852470E-2,-7.740893452E-1,2.964982724E0,3.064488675E0
2.216337292E0,-3.338277742E-1,-2.328263332E-1,2.862549446E0,2.891338516E0
2.226290292E0,-5.936055323E-1,2.863555460E-1,2.766531733E0,2.843952330E0
2.236243291E0,-7.171343949E-1,6.330825703E-1,2.710856300E0,2.874685576E0
2.246196291E0,-6.447888422E-1,5.365595117E-1,2.700375751E0,2.827662985E0
2.256148291E0,-4.259225902E-1,1.577586092E-1,2.485342056E0,2.526504100E0
2.266101291E0,-1.416338888E-1,-3.096678101E-1,2.070106130E0,2.097926047E0
2.276054292E0,4.599068999E-2,-7.166005442E-1,1.812445064E0,1.949509834E0
2.286007292E0,1.131313437E-1,-9.955918144E-1,1.692883537E0,1.967195067E0
2.295960291E0,1.030475280E-1,-1.078569213E0,1.557356772E0,1.897179606E0
2.305912292E0,-1.892919123E-2,-9.939512318E-1,1.470860081E0,1.775310323E0
2.315865291E0,-2.240214497E-1,-8.256136939E-1,1.361611288E0,1.608045050E0
2.325818291E0,-5.144263387E-1,-6.463563345E-1,1.313492212E0,1.551667735E0
2.335771292E0,-7.500758538E-1,-4.617993513E-1,1.237773693E0,1.519195886E0
2.345724292E0,-9.871500430E-1,-2.193566872E-1,1.033460868E0,1.445899004E0
2.355677291E0,-1.200370808E0,-3.442402035E-2,6.345679092E-1,1.358216302E0
2.365629292E0,-1.370074256E0,3.946432024E-2,1.185119516E-1,1.375756512E0
2.375582291E0,-1.478121738E0,5.408703715E-2,-3.652153355E-1,1.523532579E0
2.385535291E0,-1.502526847E0,9.212639093E-2,-8.465347391E-1,1.727048135E0
2.395488292E0,-1.447686980E0,2.129745975E-1,-1.246179650E0,1.922009233E0
2.405441292E0,-1.389786097E0,3.402269670E-1,-1.618178340E0,2.160037251E0
2.415393292E0,-1.279638003E0,3.864924762E-1,-1.969934555E0,2.380649492E0
2.425346292E0,-1.130989209E0,4.142255276E-1,-2.250292173E0,2.552358565E0
2.435299291E0,-9.343678120E-1,3.589439043E-1,-2.366447697E0,2.569427686E0
2.445252291E0,-7.959428751E-1,2.870656903E-1,-2.369485325E0,2.516027122E0
2.455205292E0,-7.427446148E-1,3.083043855E-1,-2.370635473E0,2.503324530E0
2.465158292E0,-7.118277544E-1,2.151428913E-1,-2.384394556E0,2.497663431E0
2.475110292E0,-7.453758618E-1,-5.700318977E-2,-2.317245131E0,2.434842816E0
2.485063292E0,-7.340843037E-1,-3.599854396E-1,-2.136162125E0,2.287281772E0
2.495016291E0,-6.053233525E-1,-5.400469373E-1,-1.989331523E0,2.148373097E0
2.504969291E0,-4.210176533E-1,-6.126136610E-1,-1.835840358E0,1.980621413E0
2.514922292E0,-2.635989136E-1,-6.553519835E-1,-1.687028135E0,1.828943558E0
2.524875292E0,-1.970494133E-1,-6.852639998E-1,-1.611850483E0,1.762520128E0
2.534827291E0,-2.246035400E-1,-7.252406824E-1,-1.467144760E0,1.651948711E0
2.544780292E0,-2.624487662E-1,-7.237516889E-1,-1.310043524E0,1.519509755E0
2.554733291E0,-3.219509098E-1,-6.393662806E-1,-1.237190140E0,1.429363870E0
2.564686291E0,-3.767977926E-1,-5.853342804E-1,-1.228649113E0,1.412151351E0
2.574639292E0,-4.077541217E-1,-6.175194749E-1,-1.140670152E0,1.359677212E0
2.584591291E0,-3.152178410E-1,-6.881034809E-1,-1.025464801E0,1.274530009E0
2.594544291E0,-1.008606693E-1,-7.972791101E-1,-9.564729184E-1,1.249266704E0
2.604497292E0,6.028683990E-2,-8.696195465E-1,-9.004875827E-1,1.253295873E0
2.614450291E0,1.429711470E-1,-9.406506452E-1,-8.649791962E-1,1.285866787E0
2.624403291E0,1.567811009E-1,-1.088239631E0,-7.814558136E-1,1.348895473E0
2.634356291E0,1.292024159E-1,-1.291192978E0,-6.641577441E-1,1.457730455E0
2.644308291E0,1.363661322E-1,-1.545121474E0,-4.628690994E-1,1.618716743E0
2.654261291E0,1.966289985E-1,-1.767308067E0,-1.183570004E-1,1.782147341E0
2.664214292E0,2.472240785E-1,-1.830930451E0,1.237639207E-1,1.851686682E0
2.674167291E0,2.757520589E-1,-1.841309697E0,2.564109313E-1,1.879416709E0
2.684120291E0,2.730579543E-1,-1.862637855E0,5.003415656E-1,1.947901976E0
2.694073291E0,2.393057790E-1,-1.788085563E0,6.852632689E-1,1.929793508E0
2.704025291E0,1.442505178E-1,-1.624925442E0,6.638343930E-1,1.761211801E0
2.713978291E0,7.432425052E-2,-1.511479372E0,6.540941012E-1,1.648615504E0
2.723931292E0,2.847038537E-2,-1.375572100E0,6.823034084E-1,1.535756200E0
2.733884291E0,9.450591534E-2,-1.217099108E0,7.024868274E-1,1.408456371E0
2.743837291E0,4.250580794E-1,-1.269558718E0,8.653920096E-1,1.594163430E0
2.753790291E0,8.857499680E-1,-1.868208790E0,1.212403209E0,2.396805922E0
2.763742291E0,1.301104301E0,-2.810053144E0,1.642445455E0,3.505267200E0
2.773696083E0,1.612030285E0,-3.527770214E0,2.023078728E0,4.374545904E0
2.783649083E0,1.728626104E0,-3.616954871E0,2.200797831E0,4.573185087E0
2.793602083E0,1.573866093E0,-3.114566195E0,2.319838956E0,4.190373473E0
2.803555083E0,1.095863815E0,-2.175097711E0,2.195217834E0,3.278863963E0
2.813508083E0,4.427374282E-1,-1.093591441E0,1.857780281E0,2.200751290E0
2.823460083E0,-1.543618155E-1,-2.273086081E-1,1.688281778E0,1.710494705E0
2.833413083E0,-6.375979364E-1,3.424234736E-1,1.449521252E0,1.620153333E0
2.843366083E0,-1.050392650E0,5.665406714E-1,1.041761575E0,1.584159156E0
2.853319083E0,-1.275390585E0,4.989358950E-1,5.413141751E-1,1.472609659E0
2.863272083E0,-1.278396346E0,3.199309891E-1,1.172466141E-1,1.323026766E0
2.873225083E0,-9.951580971E-1,8.997300759E-2,-3.268710494E-2,9.997515828E-1
2.883177083E0,-4.272920081E-1,-2.328703335E-1,-8.192767739E-2,4.934766425E-1
2.893130083E0,2.618935731E-1,-5.148423681E-1,-1.095616186E-1,5.879240222E-1
2.903083083E0,9.529175189E-1,-6.647831038E-1,-1.783570343E-1,1.175499725E0
2.913036083E0,1.383605590E0,-6.522129057E-1,-1.759286857E-1,1.539706792E0
2.922989083E0,1.490687112E0,-4.574732888E-1,-1.497664887E-1,1.566480091E0
2.932942083E0,1.262092555E0,-1.020153482E-1,-1.986503810E-1,1.281696814E0
2.942894083E0,5.566438204E-1,2.465522334E-1,1.253327286E-1,6.215694969E-1
2.952847083E0,-1.434225520E-1,5.528716354E-1,3.518480158E-1,6.708458093E-1
2.962800083E0,-6.114874873E-1,8.325688107E-1,3.154134303E-1,1.080080277E0
2.972753083E0,-8.317252037E-1,9.685928808E-1,2.045981687E-1,1.292980817E0
2.982706083E0,-8.795592284E-1,9.465700740E-1,1.003265262E-2,1.292176457E0
2.992659083E0,-9.442203704E-1,9.165668410E-1,-1.205748492E-1,1.321433001E0
3.002611083E0,-1.021702410E0,9.458131519E-1,-1.827506322E-1,1.404220825E0
3.012564083E0,-1.006280671E0,1.019302128E0,-1.318956435E-1,1.438392880E0
3.022517083E0,-9.316120192E-1,1.066766316E0,-1.676133603E-1,1.426178658E0
3.032470083E0,-8.512025714E-1,1.034589381E0,-1.907870454E-1,1.353262983E0
3.042423083E0,-7.395105198E-1,9.886583322E-1,-2.345943850E-1,1.256724167E0
3.052376083E0,-6.303719473E-1,9.937623668E-1,-3.791644531E-1,1.236405320E0
3.062328083E0,-6.041237962E-1,9.875122780E-1,-5.446909422E-1,1.279388246E0
3.072281083E0,-6.470522994E-1,9.243626413E-1,-6.430545580E-1,1.298707871E0
3.082234083E0,-7.000581864E-1,9.034208384E-1,-6.921951431E-1,1.336182919E0
3.092187083E0,-7.907944018E-1,9.577055115E-1,-7.874316680E-1,1.470579568E0
3.102140083E0,-8.439125553E-1,8.787695619E-1,-7.765418136E-1,1.444798094E0
3.112093083E0,-8.589451620E-1,7.286993104E-1,-6.532503480E-1,1.302123456E0
3.122046083E0,-8.671260014E-1,6.386700234E-1,-4.484960586E-1,1.166600024E0
3.131998083E0,-7.299520764E-1,4.979003531E-1,-2.362503165E-1,9.146305306E-1
3.141951083E0,-5.560044274E-1,3.572058195E-1,-1.972207367E-2,6.611549598E-1
3.151904083E0,-3.807253674E-1,3.596891320E-1,2.296154809E-1,5.718840320E-1
3.161857083E0,-2.674446273E-1,6.022605810E-1,6.231670082E-2,6.619122353E-1
3.171810083E0,-3.658459577E-1,8.631212434E-1,-1.681647527E-1,9.524184635E-1
3.181763083E0,-4.844479564E-1,1.036936161E0,-1.971979326E-1,1.161384281E0
3.191715083E0,-5.576805317E-1,1.270042137E0,-2.942663902E-1,1.417958855E0
3.201668083E0,-5.442392448E-1,1.610014165E0,-4.130297720E-1,1.748981292E0
3.211621083E0,-4.051521108E-1,1.861968641E0,-4.736747539E-1,1.963528260E0
3.221574083E0,-1.027648151E-1,1.852114036E0,-5.032803762E-1,1.922024492E0
3.231527083E0,2.790683073E-1,1.707246930E0,-5.103473210E-1,1.803614589E0
3.241480083E0,5.539622873E-1,1.504860763E0,-5.451084334E-1,1.693701076E0
3.251432083E0,6.184053281E-1,1.167886309E0,-3.426029831E-1,1.365196098E0
3.261385083E0,6.204892758E-1,8.976940754E-1,-2.427641147E-1,1.117942758E0
3.271338083E0,5.953120422E-1,7.237350243E-1,-1.075811666E-1,9.432722409E-1
3.281291083E0,5.723359931E-1,6.280511874E-1,-9.180713296E-3,8.497653020E-1
3.291244083E0,6.584391671E-1,5.754861805E-1,1.863624573E-2,8.746849664E-1
3.301197083E0,7.891089419E-1,5.003006351E-1,5.609643281E-2,9.360237483E-1
3.311150083E0,9.073986992E-1,3.656357503E-1,1.850889337E-1,9.956504480E-1
3.321102083E0,9.915363318E-1,1.893617865E-1,4.073532951E-1,1.088548984E0
3.331055083E0,1.020820357E0,3.982655525E-2,6.851697135E-1,1.230088571E0
3.341008083E0,9.328951907E-1,5.652357191E-2,8.107375002E-1,1.237248417E0
3.350961083E0,7.228243205E-1,1.795375872E-1,8.799392974E-1,1.152823452E0
3.360914083E0,4.708297911E-1,2.836314744E-1,1.014473789E0,1.153813059E0
3.370867083E0,3.416048634E-1,3.552929029E-1,1.010410559E0,1.124213693E0
3.380819083E0,4.728728083E-1,3.534150696E-1,7.603602290E-1,9.626310727E-1
3.390772083E0,7.307797498E-1,3.860711843E-2,6.825899220E-1,1.000729011E0
3.400725083E0,9.976142201E-1,-7.414352770E-1,8.763409209E-1,1.520833262E0
3.410678083E0,1.209118097E0,-1.816148398E0,1.124088033E0,2.454370689E0
3.420631083E0,1.430000030E0,-2.648002240E0,1.365992022E0,3.304958419E0
3.430584083E0,1.658323276E0,-2.826420670E0,1.694863989E0,3.689343279E0
3.440536083E0,1.958538916E0,-2.480569266E0,2.026661317E0,3.754524559E0
3.450489083E0,2.339401985E0,-1.892077709E0,2.073650127E0,3.654146214E0
3.460442083E0,2.673178012E0,-1.205769981E0,1.852206130E0,3.468490951E0
3.470395083E0,2.592445213E0,-8.004073705E-1,1.506508800E0,3.103384105E0
3.480348083E0,2.141090158E0,-9.482948564E-1,1.233222220E0,2.646576514E0
3.490301083E0,1.626302462E0,-1.620197822E0,6.271162176E-1,2.379742724E0
3.500254083E0,9.864067157E-1,-2.228365991E0,5.482618368E-1,2.497839915E0
3.510206083E0,1.923105374E-1,-2.412054956E0,1.127692257E0,2.669584664E0
3.520159083E0,-1.596196318E-1,-2.653407991E0,1.316836819E0,2.966498205E0
3.530112083E0,9.964035541E-2,-3.050830960E0,1.275130384E0,3.308089364E0
3.540065083E0,5.400932765E-1,-3.194049444E0,1.341322619E0,3.506108807E0
3.550018083E0,8.751328862E-1,-3.136111431E0,1.160068290E0,3.456415905E0
3.559971083E0,1.258454710E0,-3.038872234E0,7.614694458E-1,3.376135132E0
3.569924083E0,1.483120522E0,-2.866802419E0,3.074787587E-1,3.242336469E0
3.579876083E0,1.581055830E0,-2.541288800E0,-4.511887014E-2,2.993312883E0
3.589829083E0,1.453133954E0,-2.126010043E0,-5.270323509E-1,2.628550949E0
3.599782083E0,1.382741371E0,-1.786983217E0,-1.011480015E0,2.475555400E0
3.609735083E0,1.318432524E0,-1.478898979E0,-1.389646348E0,2.420025513E0
3.619688083E0,1.337110870E0,-1.222284857E0,-1.812795312E0,2.562825119E0
3.629641083E0,1.325240291E0,-1.071341031E0,-2.203630223E0,2.785681172E0
3.639593083E0,1.233453185E0,-1.082841335E0,-2.550219837E0,3.032750127E0
3.649546083E0,1.080165649E0,-1.234745127E0,-2.799558561E0,3.244823801E0
3.659499083E0,8.988956782E-1,-1.405827056E0,-2.870784080E0,3.320506646E0
3.669452083E0,7.207881738E-1,-1.502570408E0,-2.790169103E0,3.249968776E0
3.679405083E0,5.960945459E-1,-1.549623391E0,-2.601527401E0,3.086196069E0
3.689358083E0,4.363272719E-1,-1.560847999E0,-2.157074692E0,2.698073236E0
3.699311083E0,3.093073292E-1,-1.302026699E0,-1.691678426E0,2.157016561E0
3.709263083E0,2.551683980E-1,-1.263577017E0,-1.666220818E0,2.106663144E0
3.719216083E0,1.403217736E-1,-1.080484469E0,-1.253147192E0,1.660576638E0
3.729169083E0,9.908092305E-2,-8.512177742E-1,-1.205772466E0,1.479282248E0
3.739122083E0,-2.009790346E-2,-7.260543224E-1,-1.074707127E0,1.297133075E0
3.749075083E0,-1.422974016E-1,-6.784733360E-1,-1.078565705E0,1.282138291E0
3.759028083E0,-2.874084833E-1,-6.423463140E-1,-9.523365980E-1,1.184127282E0
3.768980917E0,-4.024958669E-1,-6.368246421E-1,-7.382179928E-1,1.054757959E0
3.778932916E0,-3.847295406E-1,-6.619574368E-1,-5.744287115E-1,9.571691659E-1
3.788885917E0,-2.633508454E-1,-6.344641212E-1,-5.190549946E-1,8.609973730E-1
3.798838916E0,-1.161138622E-1,-5.995923503E-1,-3.285948086E-1,6.935185389E-1
3.808791916E0,-5.673582584E-2,-5.538355489E-1,-1.839446336E-1,5.863347145E-1
3.818744916E0,-1.636461706E-1,-4.690465365E-1,-1.056176716E-1,5.078777561E-1
3.828697917E0,-3.062803718E-1,-3.472183366E-1,2.257493019E-2,4.635492066E-1
3.838650916E0,-4.157063350E-1,-1.584335241E-1,3.333556116E-2,4.461212819E-1
3.848602917E0,-4.130185162E-1,4.622165501E-2,-7.810652196E-2,4.228727526E-1
3.858555916E0,-2.966807055E-1,1.082793973E-1,-2.283571601E-1,3.897317815E-1
3.868508916E0,-1.781232919E-1,8.821825817E-2,-4.033865440E-1,4.497010919E-1
3.878461916E0,-5.400459141E-2,4.933690533E-2,-5.635066974E-1,5.682344799E-1
3.888414917E0,3.484692022E-2,9.947312504E-2,-6.037179995E-1,6.128496009E-1
3.898367916E0,4.866301373E-2,2.358650581E-1,-6.636613154E-1,7.060076176E-1
3.908320916E0,2.627300173E-2,3.006706993E-1,-7.352259725E-1,7.947643492E-1
3.918272916E0,-5.124353617E-3,2.516448659E-1,-7.275298673E-1,7.698383631E-1
3.928225916E0,-6.073766023E-2,1.991647898E-1,-6.433299619E-1,6.761871906E-1
3.938178916E0,-6.653575927E-2,1.761043945E-1,-5.286894518E-1,5.612061132E-1
3.948131917E0,-7.941980660E-3,8.727342121E-2,-4.622218126E-1,4.704558738E-1
3.958084916E0,3.462341040E-2,2.673734374E-2,-3.625367260E-1,3.651664604E-1
3.968037916E0,-1.145031005E-2,1.185979056E-1,-2.399843484E-1,2.679348061E-1
3.977990916E0,-1.474659017E-1,2.606042621E-1,-1.086962306E-1,3.185524197E-1
3.987942916E0,-1.759181607E-1,3.480203553E-1,-6.073502898E-3,3.900028903E-1
3.997895916E0,-1.368132980E-1,4.010795251E-1,2.043367982E-2,4.242643035E-1
4.007848917E0,-1.378074709E-1,4.123370232E-1,2.008810937E-2,4.352197742E-1
4.017801916E0,-1.364572026E-1,3.950651521E-1,1.040745914E-2,4.180973066E-1
4.027754916E0,-9.140177473E-2,3.580033797E-1,-4.427745581E-2,3.721306187E-1
4.037707916E0,-1.268451110E-2,3.209310092E-1,3.816360712E-2,3.234409844E-1
4.047660917E0,1.190526728E-1,3.563285910E-1,1.513984466E-1,4.050494948E-1
4.057612916E0,3.225126810E-1,3.724838631E-1,2.527540827E-1,5.537538117E-1
4.067565917E0,5.911206119E-1,-1.546340033E-2,6.632625353E-1,8.885830773E-1
4.077518916E0,8.391106756E-1,-7.059058405E-1,1.130811746E0,1.575165067E0
4.087471916E0,9.795227887E-1,-1.354570656E0,1.581399938E0,2.301119797E0
4.097424916E0,9.808628243E-1,-1.708408771E0,1.971205155E0,2.786826541E0
4.107377917E0,9.122526191E-1,-1.586208396E0,2.386926400E0,3.007603624E0
4.117330916E0,7.939751409E-1,-1.181521724E0,2.705282734E0,3.056950242E0
4.127282917E0,5.767383617E-1,-6.495154390E-1,2.890861664E0,3.018539151E0
4.137235916E0,2.166674066E-1,-2.339470983E-2,2.805161948E0,2.813614336E0
4.147188916E0,-2.259691572E-1,5.336955455E-1,2.544162122E0,2.609339744E0
4.157141916E0,-5.469345188E-1,9.175259306E-1,2.034245156E0,2.297638909E0
4.167094917E0,-7.909929147E-1,1.124097388E0,1.543606460E0,2.066878234E0
4.177047916E0,-7.818945010E-1,1.005613357E0,1.331862409E0,1.842952716E0
4.187000916E0,-5.753609039E-1,7.815138473E-1,1.333037699E0,1.648876457E0
4.196952917E0,-9.474652827E-2,4.953696781E-1,1.279649697E0,1.375453151E0
4.206905916E0,4.632101382E-1,1.499584235E-1,1.369007431E0,1.453008089E0
4.216858916E0,8.367869921E-1,-1.117401449E-1,1.545928974E0,1.761418384E0
4.226811917E0,1.101574645E0,-2.544494829E-1,1.667456335E0,2.014602161E0
4.236764916E0,1.247716590E0,-3.139089417E-1,1.612639273E0,2.062993199E0
4.246717916E0,1.283541165E0,-2.947714435E-1,1.474624518E0,1.977090184E0
4.256670916E0,1.208418039E0,-8.855096474E-2,1.129458700E0,1.656439672E0
4.266622916E0,1.019840802E0,2.409194644E-1,8.087769288E-1,1.323721108E0
4.276575916E0,8.890896052E-1,5.770830551E-1,3.924715465E-1,1.130282749E0
4.286528917E0,9.044183734E-1,8.389174251E-1,-1.318219686E-1,1.240617617E0
4.296481917E0,1.003890475E0,1.058811910E0,-5.607526588E-1,1.563113013E0
4.306434916E0,1.102887198E0,1.232886590E0,-9.392984766E-1,1.902275254E0
4.316387916E0,1.168543390E0,1.360161617E0,-1.183652449E0,2.148619650E0
4.326340917E0,1.120033427E0,1.478400358E0,-1.154945544E0,2.184958056E0
4.336293916E0,9.405876414E-1,1.659538035E0,-1.027861574E0,2.166857406E0
4.346245917E0,7.698267250E-1,1.776152273E0,-9.684252119E-1,2.164531699E0
4.356198917E0,7.616382842E-1,1.680417565E0,-8.016614521E-1,2.011605616E0
4.366151916E0,8.153622092E-1,1.593515369E0,-6.690922093E-1,1.910966025E0
4.376104916E0,8.627603240E-1,1.502897560E0,-7.873714417E-1,1.903420668E0
4.386057917E0,9.154872988E-1,1.261370570E0,-8.910922766E-1,1.795332324E0
4.396010917E0,8.641988853E-1,1.097780240E0,-9.963211083E-1,1.715988613E0
4.405963916E0,7.645876198E-1,1.080537971E0,-1.148982553E0,1.752802739E0
4.415915917E0,6.746827322E-1,1.122989926E0,-1.291525392E0,1.839657849E0
4.425868916E0,6.083172731E-1,1.139309505E0,-1.360978035E0,1.876256183E0
4.435821916E0,6.066958402E-1,1.155149173E0,-1.274927486E0,1.824250407E0
4.445774917E0,6.342711630E-1,1.160755630E0,-1.133652908E0,1.742074182E0
4.455727917E0,7.156111953E-1,1.146881503E0,-9.972742045E-1,1.679878687E0
4.465680916E0,7.157119136E-1,1.141004612E0,-7.909078377E-1,1.561944390E0
4.475633916E0,6.452191973E-1,1.133732723E0,-7.436535645E-1,1.501558631E0
4.485585916E0,5.162527165E-1,1.092820924E0,-6.232699192E-1,1.359867579E0
4.495538916E0,3.946255146E-1,1.073197011E0,-5.454627746E-1,1.266890192E0
4.505491917E0,3.689518525E-1,1.117702435E0,-5.341349638E-1,1.292549559E0
4.515444917E0,4.802347451E-1,1.169477337E0,-5.610684085E-1,1.383148730E0
4.525397916E0,6.359708025E-1,1.216982529E0,-6.779302758E-1,1.531370235E0
4.535350916E0,7.066962379E-1,1.245268800E0,-7.767803800E-1,1.628957248E0
4.545303917E0,7.228516562E-1,1.334185362E0,-7.982156879E-1,1.714559238E0
4.555255916E0,6.962664132E-1,1.404106805E0,-9.024253500E-1,1.808500581E0
4.565208917E0,5.777321691E-1,1.385441616E0,-8.448536646E-1,1.722498373E0
4.575161917E0,5.934580363E-1,1.293435970E0,-7.702449471E-1,1.618161403E0
4.585114916E0,7.227747653E-1,1.125665904E0,-6.521183270E-1,1.488215509E0
4.595067916E0,8.176016197E-1,9.883636326E-1,-5.494529146E-1,1.395433117E0
4.605020917E0,8.406372374E-1,8.976252975E-1,-5.147029120E-1,1.333162116E0
4.614973917E0,7.707002990E-1,8.664747678E-1,-3.530051798E-1,1.212175784E0
4.624926916E0,6.758273978E-1,9.896733358E-1,-2.037690336E-1,1.215614167E0
4.634878917E0,5.377831147E-1,1.073678894E0,-1.367763144E-1,1.208596213E0
4.644831916E0,5.053232472E-1,1.081734019E0,-1.860876381E-2,1.194088086E0
4.654784916E0,5.370919007E-1,1.121018464E0,5.422883213E-2,1.244222999E0
4.664737917E0,6.351677605E-1,1.158059698E0,7.441692889E-2,1.322905222E0
4.674690917E0,7.600413365E-1,1.109945592E0,5.761846304E-3,1.345241706E0
4.684643916E0,8.103922952E-1,9.573983864E-1,-9.143875837E-3,1.254364761E0
4.694596916E0,7.770348801E-1,8.087968824E-1,8.351285756E-2,1.124682177E0
4.704549917E0,7.023212050E-1,6.786739685E-1,2.043233496E-1,9.977983071E-1
4.714501916E0,6.331022315E-1,5.840277931E-1,3.894748485E-1,9.453028913E-1
4.724454917E0,5.021892858E-1,6.006406830E-1,6.225325853E-1,1.000255032E0
4.734407917E0,3.445137070E-1,6.364432575E-1,7.901307428E-1,1.071473894E0
4.744360916E0,2.322406615E-1,6.136721532E-1,8.917290384E-1,1.107117841E0
4.754313916E0,2.094545006E-1,6.347525351E-1,8.948520362E-1,1.116934257E0
4.764266917E0,2.325697135E-1,6.693608889E-1,8.137570024E-1,1.079042692E0
4.774219458E0,3.192052035E-1,6.612918044E-1,6.574053794E-1,9.855864474E-1
4.784172458E0,3.952894659E-1,5.273335556E-1,5.724698943E-1,8.729583155E-1
4.794124458E0,4.793336892E-1,1.004339688E-1,6.647658545E-1,8.256884455E-1
4.804077458E0,5.363104203E-1,-5.729939510E-1,9.088637191E-1,1.200826463E0
4.814030458E0,5.443886411E-1,-1.161391880E0,1.257688724E0,1.796377193E0
4.823983458E0,4.900704197E-1,-1.357337851E0,1.626685454E0,2.174543774E0
4.833936458E0,4.980302344E-1,-1.285748928E0,1.937031687E0,2.377661914E0
4.843889458E0,5.766790125E-1,-1.078136227E0,2.102958126E0,2.432564344E0
4.853842458E0,5.185516224E-1,-7.035211267E-1,2.130616041E0,2.302903054E0
4.863795458E0,2.762772851E-1,-1.609815945E-1,1.933619252E0,1.959879493E0
4.873747458E0,-1.643806540E-1,3.337103914E-1,1.637131505E0,1.678863660E0
4.883700458E0,-4.294819365E-1,5.033977591E-1,1.179178745E0,1.352156259E0
4.893653458E0,-5.594224904E-1,3.914807358E-1,6.497893810E-1,9.425693232E-1
4.903606458E0,-5.891870838E-1,1.483054157E-1,2.399165207E-1,6.532196055E-1
4.913559458E0,-5.231047031E-1,-1.437373515E-1,2.302633524E-3,5.424981647E-1
4.923512458E0,-3.798007033E-1,-4.527226453E-1,-8.879523218E-2,5.975708837E-1
4.933465458E0,-1.800353314E-1,-8.045154780E-1,-1.061357349E-1,8.312175823E-1
4.943418458E0,-5.639551789E-2,-1.074868510E0,5.165898085E-2,1.077585922E0
4.953370458E0,-1.282433264E-2,-1.192630483E0,2.922034925E-1,1.227971830E0
4.963323458E0,-4.149220772E-2,-1.255883981E0,5.036013883E-1,1.353728383E0
4.973276458E0,-1.577046686E-1,-1.244138972E0,6.582234049E-1,1.416337034E0
4.983229458E0,-3.435941593E-1,-1.081315358E0,6.825776428E-1,1.324089154E0
4.993182458E0,-5.684225247E-1,-8.150936759E-1,6.279780972E-1,1.175516209E0
5.003135458E0,-8.133074977E-1,-5.021989337E-1,4.854726809E-1,1.072080491E0
5.013088458E0,-9.911438374E-1,-1.734550211E-1,2.791642016E-1,1.044215209E0
5.023040458E0,-1.083235803E0,1.193872067E-1,7.327672184E-2,1.092255734E0
5.032993458E0,-1.029917017E0,3.847668897E-1,-7.467771471E-2,1.101976126E0
5.042946458E0,-8.339067268E-1,5.589552248E-1,-1.906730247E-1,1.021854967E0
5.052899458E0,-5.804231308E-1,5.715497618E-1,-3.238012612E-1,8.765884997E-1
5.062852458E0,-4.031259044E-1,4.851641672E-1,-4.323682684E-1,7.647464177E-1
5.072805458E0,-3.078737381E-1,4.051717720E-1,-5.888274801E-1,7.782468791E-1
5.082758458E0,-2.661980009E-1,2.842902363E-1,-7.509894812E-1,8.459713441E-1
5.092711458E0,-2.638708091E-1,1.156759058E-1,-8.623806936E-1,9.092354919E-1
5.102664458E0,-2.538108207E-1,3.505917415E-3,-9.755336720E-1,1.008016949E0
5.112616458E0,-2.389867403E-1,-3.759854682E-2,-9.529628348E-1,9.831919840E-1
5.122569458E0,-1.952450357E-1,2.098558389E-2,-8.990503371E-1,9.202459059E-1
5.132522458E0,-1.531534152E-1,1.394121661E-1,-8.175074065E-1,8.433327222E-1
5.142475458E0,-1.066036583E-1,2.300293176E-1,-6.906380296E-1,7.357028713E-1
5.152428458E0,-6.629419617E-2,3.244895516E-1,-6.181547749E-1,7.012871846E-1
5.162381458E0,-4.020362757E-2,3.903734925E-1,-5.957266098E-1,7.133708635E-1
5.172334458E0,-3.032731488E-2,4.179598519E-1,-6.082846749E-1,7.386612414E-1
5.182287458E0,-3.155786142E-2,3.874843101E-1,-6.623386753E-1,7.680055403E-1
5.192239458E0,-2.462196730E-2,3.671235012E-1,-6.107627249E-1,7.130336686E-1
5.202192458E0,-3.092935883E-2,3.785135484E-1,-5.579483342E-1,6.749336821E-1
5.212145458E0,-1.558377989E-2,4.078116072E-1,-5.390501332E-1,6.761125700E-1
5.222098458E0,-2.473299131E-2,4.120259878E-1,-4.943078238E-1,6.439855279E-1
5.232051458E0,1.953123517E-2,4.214008287E-1,-5.129803222E-1,6.641603260E-1
5.242004458E0,8.719543397E-2,4.103376774E-1,-5.370199800E-1,6.814473656E-1
5.251957458E0,1.576887350E-1,3.891896506E-1,-5.753233355E-1,7.122719015E-1
5.261910458E0,1.499700449E-1,3.956984787E-1,-6.291247362E-1,7.581993366E-1
5.271862458E0,1.107646832E-1,4.283671649E-1,-6.060147858E-1,7.503473619E-1
5.281815458E0,4.980263606E-2,4.853574177E-1,-5.289806432E-1,7.196336890E-1
5.291768458E0,9.825544238E-2,5.312400804E-1,-4.645139211E-1,7.124909388E-1
5.301721458E0,1.817272963E-1,5.265790090E-1,-4.051021171E-1,6.887800724E-1
5.311674458E0,2.634471783E-1,4.608310158E-1,-3.401880831E-1,6.304740857E-1
5.321627458E0,3.607607804E-1,3.981863958E-1,-3.117565817E-1,6.212027952E-1
5.331580458E0,4.378295678E-1,3.275793665E-1,-3.410002613E-1,6.444254418E-1
5.341533458E0,4.559090124E-1,2.729834754E-1,-3.573631096E-1,6.403759814E-1
5.351485458E0,4.302667060E-1,2.208030691E-1,-3.243152314E-1,5.822918537E-1
5.361438458E0,3.809154019E-1,2.007797176E-1,-2.210066253E-1,4.839968665E-1
5.371391458E0,3.149431680E-1,2.450803796E-1,-2.464835286E-2,3.998263784E-1
5.381344458E0,2.651183125E-1,2.949343250E-1,2.448351985E-1,4.660667872E-1
5.391297458E0,2.324201710E-1,2.593937422E-1,4.589853787E-1,5.761699639E-1
5.401250458E0,2.365501325E-1,1.039936075E-1,6.487158322E-1,6.982856626E-1
5.411203458E0,2.010839921E-1,-2.714372523E-2,8.027133662E-1,8.279615341E-1
5.421156458E0,1.300996712E-1,-1.040985650E-1,9.285501248E-1,9.433810311E-1
5.431109458E0,2.134986542E-2,-1.181436135E-1,9.530645764E-1,9.605965943E-1
5.441061458E0,-1.247692763E-1,-6.307402488E-2,9.121902001E-1,9.228416257E-1
5.451014458E0,-2.939013047E-1,9.932921045E-3,1.026106825E0,1.067413629E0
5.460967458E0,-3.736915324E-1,1.389338273E-1,1.195798870E0,1.260508988E0
5.470920458E0,-3.552885906E-1,3.663293763E-1,1.272191573E0,1.370729220E0
5.480873458E0,-2.225665163E-1,4.963679440E-1,1.195033470E0,1.313020177E0
5.490826458E0,-1.750868328E-2,1.522441367E-1,1.243671779E0,1.253077941E0
5.500779458E0,2.751537426E-1,-5.161605497E-1,1.230061800E0,1.362051147E0
5.510732458E0,4.908471492E-1,-1.153366211E0,1.162906528E0,1.709835119E0
5.520684458E0,6.006405368E-1,-1.517311239E0,1.215815059E0,2.034995997E0
5.530637458E0,4.960179151E-1,-1.600566380E0,1.543393037E0,2.278137085E0
5.540590458E0,1.298532110E-1,-1.370777676E0,1.982627690E0,2.413857049E0
5.550543458E0,-3.656383815E-1,-8.979137114E-1,2.172856911E0,2.379337642E0
5.560496458E0,-9.033303528E-1,-3.837632883E-1,2.304067846E0,2.504397857E0
5.570449458E0,-1.329297820E0,2.110898937E-1,2.255578641E0,2.626637897E0
5.580402458E0,-1.533642220E0,7.100751246E-1,1.852096202E0,2.507294455E0
5.590355458E0,-1.533239931E0,8.119111095E-1,1.302472549E0,2.169437503E0
5.600307458E0,-1.361349771E0,6.244452095E-1,6.892779672E-1,1.648729552E0
5.610260458E0,-1.114553124E0,4.028404140E-1,2.424489498E-1,1.209665474E0
5.620213458E0,-8.236371157E-1,1.779081874E-1,-8.307256222E-2,8.467174689E-1
5.630166458E0,-4.290548705E-1,-1.583846267E-1,-1.262682831E-1,4.744654373E-1
5.640119458E0,-3.348539606E-2,-3.796209014E-1,7.510163784E-2,3.884244541E-1
5.650072458E0,2.176251805E-1,-3.880427192E-1,3.346244574E-1,5.566968642E-1
5.660025458E0,2.806560456E-1,-3.749386704E-1,6.677099276E-1,8.155877450E-1
5.669978458E0,2.544535759E-1,-3.501289344E-1,8.257794625E-1,9.323350329E-1
5.679931458E0,1.005531058E-1,-2.915339132E-1,8.198299205E-1,8.759132653E-1
5.689883458E0,-1.412051417E-1,-2.430991602E-1,7.659144992E-1,8.158805757E-1
5.699836458E0,-3.946414483E-1,-1.809447196E-1,6.052423686E-1,7.448497761E-1
5.709789458E0,-6.196784131E-1,-5.681403235E-2,4.123971033E-1,7.465256464E-1
5.719742458E0,-6.842394215E-1,1.059314478E-1,1.084027004E-1,7.008253727E-1
5.729695458E0,-5.913827133E-1,2.456964203E-1,-1.806140596E-1,6.653733411E-1
5.739648458E0,-4.306237516E-1,3.521949019E-1,-4.979541475E-1,7.466166334E-1
5.749601458E0,-3.240765189E-1,4.637159224E-1,-7.826416290E-1,9.657049064E-1
5.759554458E0,-2.732501815E-1,5.457401519E-1,-9.595356899E-1,1.137192471E0
5.769507458E0,-2.914285903E-1,6.124571749E-1,-1.094847277E0,1.287914972E0
5.779459458E0,-3.762589717E-1,6.223958335E-1,-1.170309688E0,1.377886843E0
5.789412458E0,-4.512053660E-1,5.078985802E-1,-1.196149119E0,1.375616212E0
5.799365458E0,-4.482012127E-1,3.357479268E-1,-1.299271199E0,1.414820358E0
5.809318458E0,-3.841315167E-1,1.452815281E-1,-1.363834984E0,1.424327774E0
5.819271458E0,-3.293118965E-1,-5.982140154E-3,-1.339494780E0,1.379394206E0
5.829224458E0,-2.579851480E-1,-4.912757501E-2,-1.323196836E0,1.349006939E0
5.839177458E0,-2.076379900E-1,-9.169822857E-3,-1.302859050E0,1.319332909E0
5.849130458E0,-2.022461262E-1,1.147963384E-1,-1.134189683E0,1.157785788E0
5.859083458E0,-2.643753507E-1,3.668866159E-1,-9.626107407E-1,1.063541044E0
5.869035458E0,-3.216108211E-1,6.035534003E-1,-8.522153091E-1,1.092694450E0
5.878988458E0,-2.908723739E-1,7.139548253E-1,-7.427051461E-1,1.070490151E0
5.888941458E0,-2.085396306E-1,7.831880513E-1,-6.504659039E-1,1.039219993E0
5.898894458E0,-1.808616892E-1,8.231221222E-1,-6.380013943E-1,1.057017861E0
5.908847458E0,-1.947510190E-1,8.203995855E-1,-6.806123936E-1,1.083612786E0
5.918800458E0,-2.274194129E-1,7.542848989E-1,-6.839634329E-1,1.043298268E0
5.928753458E0,-2.856995615E-1,7.398384024E-1,-7.058583319E-1,1.061706685E0
5.938706458E0,-2.705124421E-1,6.959383113E-1,-6.946258307E-1,1.019809864E0
5.948659458E0,-1.506660097E-1,6.305002937E-1,-6.781244034E-1,9.381276956E-1
5.958611458E0,5.949615017E-3,5.858804834E-1,-6.648898154E-1,8.862109260E-1
5.968564458E0,1.568366495E-1,5.262265315E-1,-6.615972483E-1,8.597807953E-1
5.978517458E0,2.906905986E-1,4.746690729E-1,-6.600734639E-1,8.634284745E-1
5.988470458E0,3.304856519E-1,4.257186686E-1,-6.007908833E-1,8.070977861E-1
5.998423458E0,2.104815640E-1,3.538846741E-1,-4.186846143E-1,5.872253891E-1
6.008376458E0,3.679762445E-2,2.711961278E-1,-2.834513801E-1,3.940128041E-1
6.018329458E0,-7.880102500E-2,1.430046954E-1,-1.827927321E-1,2.450981994E-1
6.028282458E0,-1.771794051E-1,1.423066109E-4,-5.604556203E-2,1.858323623E-1
6.038235458E0,-2.535895036E-1,-5.033297852E-2,2.609670818E-2,2.598501169E-1
6.048187458E0,-2.754883495E-1,-8.185853407E-2,1.402226633E-1,3.197765557E-1
6.058140458E0,-2.770139612E-1,-1.844731488E-1,2.053729248E-1,3.910819806E-1
6.068093458E0,-3.257695802E-1,-1.918149128E-1,2.650770897E-1,4.617192259E-1
6.078046458E0,-4.595835489E-1,-8.992140591E-2,2.947926396E-1,5.533584715E-1
6.087999458E0,-5.677503873E-1,-2.545833841E-2,3.542178923E-1,6.696707732E-1
6.097952458E0,-6.286006064E-1,1.351364627E-2,4.519242811E-1,7.743105946E-1
6.107905458E0,-6.649052375E-1,-2.215590410E-2,5.410668379E-1,8.575215344E-1
6.117858458E0,-6.653353002E-1,-1.355209172E-1,6.354350513E-1,9.299541307E-1
6.127811458E0,-5.760143302E-1,-2.712017557E-1,6.766976827E-1,9.291192898E-1
6.137763458E0,-4.719845431E-1,-3.520100567E-1,6.607868242E-1,8.850535103E-1
6.147716458E0,-4.086868257E-1,-3.660262712E-1,6.489508903E-1,8.497866854E-1
6.157669458E0,-4.170729755E-1,-3.613424322E-1,6.173180383E-1,8.280095293E-1
6.167622458E0,-4.080844163E-1,-4.432183617E-1,6.665094942E-1,8.984488371E-1
6.177575458E0,-3.705315509E-1,-7.677108369E-1,9.686392200E-1,1.290323796E0
6.187528458E0,-2.400045213E-1,-1.211554193E0,1.316776593E0,1.805371521E0
6.197481458E0,-1.116028816E-2,-1.532710174E0,1.641573050E0,2.245904519E0
6.207434458E0,1.597081440E-1,-1.595985526E0,1.980078889E0,2.548212883E0
6.217387458E0,2.782483815E-1,-1.392476401E0,2.226158375E0,2.640491204E0
6.227339458E0,2.813721102E-1,-1.071342859E0,2.340207732E0,2.589115295E0
6.237292458E0,1.102355102E-1,-7.471407708E-1,2.243959054E0,2.367640901E0
6.247245458E0,-1.869704215E-1,-4.464392274E-1,2.019010820E0,2.076215455E0
6.257198458E0,-4.572303370E-1,-2.821187266E-1,1.756466745E0,1.836797752E0
6.267151458E0,-5.814145263E-1,-2.664878035E-1,1.375122449E0,1.516581799E0
6.277104458E0,-6.671017440E-1,-3.349558483E-1,1.001262006E0,1.248897818E0
6.287057458E0,-6.832883719E-1,-4.386031544E-1,6.249246812E-1,1.024590935E0
6.297010458E0,-5.579290750E-1,-5.835460556E-1,3.195187604E-1,8.682759296E-1
6.306963458E0,-3.427774860E-1,-7.589307310E-1,1.102673775E-1,8.400185437E-1
6.316916458E0,-2.196108218E-2,-9.437519353E-1,4.570768476E-2,9.451133249E-1
6.326868458E0,4.474670217E-1,-1.115532899E0,-4.726713717E-2,1.202860992E0
6.336821458E0,7.824270362E-1,-1.267657496E0,-1.548506427E-1,1.497707019E0
6.346774458E0,9.708879860E-1,-1.447553225E0,-1.561153954E-1,1.749973096E0
6.356727458E0,1.018692409E0,-1.560953541E0,-2.299171972E-1,1.878076702E0
6.366680458E0,8.809567130E-1,-1.614384667E0,-1.969465023E-1,1.849624423E0
6.376633458E0,5.937974307E-1,-1.557355311E0,-6.870419919E-2,1.668134053E0
6.386586458E0,3.089894599E-1,-1.416813389E0,8.123419762E-2,1.452388950E0
6.396539458E0,1.145665793E-1,-1.291398800E0,1.139686650E-1,1.301470406E0
6.406492458E0,-4.601744100E-2,-1.155577336E0,1.336451304E-1,1.164189677E0
6.416444458E0,-1.184222699E-1,-9.651228507E-1,8.698961198E-2,9.762444077E-1
6.426397458E0,-9.347874228E-2,-8.188129435E-1,-7.726978540E-2,8.277460550E-1
6.436350458E0,-4.246814456E-2,-7.773341113E-1,-2.815691614E-1,8.278484503E-1
6.446303458E0,-9.452800686E-3,-7.447780571E-1,-5.159647411E-1,9.060923374E-1
6.456256458E0,2.803574996E-2,-6.886096305E-1,-6.766099745E-1,9.658003334E-1
6.466209458E0,3.680332549E-2,-6.496293135E-1,-7.385542077E-1,9.842941874E-1
6.476162458E0,3.990074180E-2,-6.516607093E-1,-7.127849436E-1,9.666002923E-1
6.486115458E0,8.851368874E-3,-6.801479054E-1,-6.546285367E-1,9.440434529E-1
6.496068458E0,1.715580496E-2,-6.041270853E-1,-5.794339281E-1,8.372619267E-1
6.506021458E0,1.946041077E-2,-5.941019610E-1,-5.861997414E-1,8.348448864E-1
6.515973458E0,6.045402002E-3,-7.620002999E-1,-6.383446258E-1,9.940648195E-1
6.525926458E0,-8.591789044E-2,-7.980097197E-1,-6.085144705E-1,1.007219568E0
6.535879458E0,-2.596357804E-1,-6.488257599E-1,-4.719498253E-1,8.432806429E-1
6.545832458E0,-4.483605494E-1,-5.057008311E-1,-3.595201474E-1,7.655163285E-1
6.555785458E0,-7.034103220E-1,-3.465578936E-1,-1.765040517E-1,8.037674632E-1
6.565738458E0,-7.723989151E-1,-1.484858023E-1,5.180691540E-2,7.882462014E-1
6.575691458E0,-4.568958762E-1,2.727726102E-4,1.319786739E-1,4.755757421E-1
6.585644458E0,1.567262102E-2,1.636102103E-2,5.361721337E-2,5.820755645E-2
6.595597458E0,4.340418877E-1,-5.297350802E-2,-2.948774242E-1,5.274004628E-1
6.605550458E0,6.108440377E-1,-1.331009008E-1,-6.706598479E-1,9.168592693E-1
6.615502458E0,5.196595967E-1,-6.023750402E-2,-8.915372497E-1,1.033689180E0
6.625455458E0,2.503891763E-1,1.403265245E-1,-8.945479810E-1,9.394691924E-1
6.635408458E0,-3.922933526E-3,2.983344443E-1,-9.044777226E-1,9.524173354E-1
6.645361458E0,-1.738768246E-1,2.750470309E-1,-8.337907326E-1,8.950368736E-1
6.655314458E0,-2.426699746E-1,3.099234796E-1,-6.111094648E-1,7.269085621E-1
6.665267458E0,-5.271772888E-2,4.302236558E-1,-4.805832392E-1,6.471721585E-1
6.675220458E0,2.482178128E-1,4.112494411E-1,-4.188337183E-1,6.373067307E-1
6.685173458E0,5.086738479E-1,2.829662074E-1,-4.155253637E-1,7.151784994E-1
6.695126458E0,5.338668689E-1,2.436686059E-1,-5.011601758E-1,7.717186955E-1
6.705079458E0,3.975540560E-1,3.415022448E-1,-5.665817481E-1,7.718081938E-1
6.715031458E0,2.506419953E-1,3.703216358E-1,-6.496560645E-1,7.886777073E-1
6.724984458E0,1.967072781E-1,3.305428816E-1,-6.939276731E-1,7.934027762E-1
6.734937458E0,2.509360372E-1,3.357844719E-1,-6.226167852E-1,7.505809533E-1
6.744890458E0,3.370127891E-1,2.795917610E-1,-4.719971877E-1,6.438404446E-1
6.754843458E0,4.108910433E-1,1.688710050E-1,-2.424805248E-1,5.061083586E-1
6.764796458E0,4.219228023E-1,7.879139537E-2,-3.822032511E-2,4.309149897E-1
6.774753666E0,3.257270417E-1,1.098616904E-2,2.078872275E-1,3.865693999E-1
6.784706667E0,2.067598113E-1,-4.139708083E-2,3.330036092E-1,3.941506585E-1
6.794659666E0,6.573750470E-2,-1.278071607E-1,4.496555614E-1,4.720658998E-1
6.804612666E0,-3.536951512E-2,-2.173705160E-1,5.136463201E-1,5.588680399E-1
6.814564666E0,-8.834945507E-2,-2.487353645E-1,6.585566962E-1,7.094870188E-1
6.824517666E0,-9.376953162E-2,-2.132196324E-1,7.613805681E-1,7.962133547E-1
6.834470666E0,6.989871226E-3,-1.807489293E-1,7.891460717E-1,8.096113612E-1
6.844423667E0,8.910630405E-2,-1.217729437E-1,8.336503994E-1,8.471963006E-1
6.854376666E0,1.006017838E-1,2.086030729E-3,7.890805829E-1,7.954704499E-1
6.864329666E0,8.895632297E-2,1.444509676E-1,7.255213487E-1,7.450909588E-1
6.874282666E0,5.828906558E-2,2.865113194E-1,6.377417779E-1,7.015703291E-1
6.884235667E0,5.756539956E-2,3.457639148E-1,4.705926865E-1,5.867912206E-1
6.894188666E0,1.103107931E-1,3.622756478E-1,2.942038250E-1,4.795497959E-1
6.904141666E0,2.330894944E-1,2.987293506E-1,3.564760870E-1,5.202356562E-1
6.914093666E0,5.617398881E-1,-5.698285243E-2,6.807375240E-1,8.844220282E-1
6.924046666E0,1.062597105E0,-8.532832300E-1,9.353668088E-1,1.652911354E0
6.933999666E0,1.362159611E0,-1.607873792E0,1.155721470E0,2.403420282E0
6.943952667E0,1.366323559E0,-1.871264983E0,1.538569669E0,2.781307126E0
6.953905666E0,1.083460848E0,-1.693109532E0,1.724019375E0,2.648159758E0
6.963858666E0,6.327953258E-1,-1.393990830E0,1.697617443E0,2.285945174E0
6.973811666E0,3.915109221E-2,-1.091020128E0,1.549569451E0,1.895527159E0
6.983764667E0,-5.335802457E-1,-7.108799207E-1,1.395795865E0,1.654782233E0
6.993717666E0,-9.552990898E-1,-4.240029128E-1,1.219952549E0,1.606442978E0
7.003670666E0,-1.240286095E0,-4.016623463E-1,1.153570279E0,1.740794826E0
7.013622666E0,-1.230341735E0,-3.890434702E-1,8.613001281E-1,1.551429508E0
7.023575666E0,-8.893805042E-1,-4.154277152E-1,6.375494045E-1,1.170490116E0
7.033528666E0,-2.979903357E-1,-4.513962045E-1,4.199850351E-1,6.847950082E-1
7.043481667E0,1.789145663E-1,-5.562242827E-1,3.069858384E-1,6.600274083E-1
7.053434666E0,5.719149935E-1,-7.894231566E-1,2.255358785E-1,1.000570893E0
7.063387666E0,7.066676597E-1,-9.698817533E-1,2.691642934E-1,1.229837068E0
7.073340666E0,6.648884998E-1,-1.047516113E0,3.177341902E-1,1.280750459E0
7.083293667E0,6.641948739E-1,-1.154361407E0,3.434654474E-1,1.375381257E0
7.093246666E0,7.217372500E-1,-1.259268496E0,4.320455021E-1,1.514372847E0
7.103199666E0,9.229287578E-1,-1.295254600E0,4.952211589E-1,1.665750872E0
7.113152666E0,1.133436415E0,-1.288187217E0,5.146912175E-1,1.791371391E0
7.123104666E0,1.264472664E0,-1.249636816E0,4.832209182E-1,1.842277326E0
7.133057666E0,1.270683869E0,-1.100036827E0,4.204264998E-1,1.732477116E0
7.143010667E0,1.235888989E0,-8.766261920E-1,3.237381113E-1,1.549419710E0
7.152963666E0,1.169397230E0,-6.647180535E-1,1.474615163E-1,1.353175846E0
7.162916666E0,1.018461883E0,-4.862554038E-1,-2.785613537E-3,1.128590574E0
7.172869666E0,9.057292461E-1,-4.024080855E-1,-1.745294470E-1,1.006348976E0
7.182822667E0,8.549320717E-1,-4.254437032E-1,-3.073723394E-1,1.003189387E0
7.192775666E0,8.897209583E-1,-4.707691263E-1,-3.931737971E-1,1.080653778E0
7.202728666E0,1.012132126E0,-5.269138717E-1,-4.294943619E-1,1.219227245E0
7.212681666E0,1.154672187E0,-5.625849570E-1,-3.955103445E-1,1.343948706E0
7.222634667E0,1.298006884E0,-6.251724569E-1,-1.431608891E-1,1.447811284E0
7.232586666E0,1.587946773E0,-7.749139488E-1,-8.780763745E-2,1.769117510E0
7.242539667E0,1.889130858E0,-9.366120464E-1,-1.250327665E-1,2.112271459E0
7.252492666E0,2.142753545E0,-1.096203100E0,-1.923371422E-1,2.414549144E0
7.262445666E0,2.209092545E0,-1.212018608E0,-2.803365684E-1,2.535284515E0
7.272398666E0,2.149953806E0,-1.292495737E0,-2.801237297E-1,2.524146569E0
7.282351667E0,2.023238796E0,-1.180671027E0,-2.878549182E-1,2.360156722E0
7.292304666E0,1.766280711E0,-8.764995997E-1,-1.972219062E-1,1.981639619E0
7.302257666E0,1.499097016E0,-5.170573664E-1,-4.707125545E-2,1.586460175E0
7.312210666E0,1.297476396E0,-2.278504258E-1,-3.932720304E-2,1.317917844E0
7.322163667E0,1.148041590E0,-8.641950846E-2,-4.080596387E-2,1.152012566E0
7.332116666E0,1.043221479E0,-2.716514066E-2,-9.323268414E-2,1.047731517E0
7.342068667E0,9.909969992E-1,-6.797315106E-3,-3.234568602E-1,1.042470909E0
7.352021666E0,9.700547578E-1,-3.477609582E-2,-6.228114974E-1,1.153303850E0
7.361974666E0,9.605710126E-1,-1.435766262E-1,-9.310392845E-1,1.345416317E0
7.371927666E0,9.477488726E-1,-2.082106517E-1,-1.130474362E0,1.489816057E0
7.381880667E0,9.137834202E-1,-1.381737989E-1,-1.313947125E0,1.606408785E0
7.391833666E0,8.246576741E-1,-5.678786606E-2,-1.429168264E0,1.651001837E0
7.401786666E0,7.259590859E-1,-1.892232075E-2,-1.383564075E0,1.562569742E0
7.411739666E0,6.216427852E-1,5.038545728E-2,-1.273828794E0,1.418315283E0
7.421692667E0,4.824149891E-1,1.949581566E-1,-1.051389016E0,1.173094952E0
7.431645666E0,4.022984868E-1,3.862762023E-1,-7.142315447E-1,9.061898677E-1
7.441597667E0,5.451553207E-1,5.675290702E-1,-4.335599309E-1,8.984752545E-1
7.451550666E0,7.436464747E-1,6.718470519E-1,-3.050562572E-1,1.047591457E0
7.461503666E0,9.207046963E-1,7.178993569E-1,-2.486124998E-1,1.193685385E0
7.471456666E0,8.942836138E-1,7.260766880E-1,-1.916968721E-1,1.167766342E0
7.481409667E0,8.177266040E-1,7.811108279E-1,-2.190951705E-1,1.151873959E0
7.491362666E0,6.332802793E-1,8.712865146E-1,-2.871509135E-1,1.114737525E0
7.501315666E0,4.209861515E-1,9.204694920E-1,-3.079693401E-1,1.057987968E0
7.511268666E0,3.142451566E-1,9.492296069E-1,-2.327449107E-1,1.026624108E0
7.521221667E0,3.423798022E-1,1.031130241E0,-1.537250537E-1,1.097308022E0
7.531174666E0,4.320971403E-1,1.091793276E0,-7.958294392E-2,1.176883147E0
7.541127666E0,5.292481167E-1,1.099972581E0,-9.855657399E-2,1.224645518E0
7.551080666E0,5.465056986E-1,1.095618086E0,-1.160385793E-1,1.229842437E0
7.561032666E0,4.636290912E-1,1.128748629E0,-1.015678900E-1,1.224475985E0
7.570985666E0,3.319064888E-1,1.197584610E0,-8.310647607E-2,1.245502911E0
7.580938667E0,2.069774739E-1,1.254402004E0,-1.429644227E-3,1.271363877E0
7.590891666E0,1.010011852E-1,1.318025412E0,7.038761258E-2,1.323762306E0
7.600844666E0,5.793362796E-2,1.306163896E0,1.763181102E-1,1.319283330E0
7.610797666E0,6.096007369E-2,1.256197684E0,2.849582076E-1,1.289554161E0
7.620750667E0,1.055321195E-1,1.226092637E0,3.723840219E-1,1.285733270E0
7.630703666E0,1.188221464E-1,1.198266249E0,4.340084124E-1,1.279970315E0
7.640656666E0,1.433232225E-1,1.158592379E0,4.299469364E-1,1.244078862E0
7.650609666E0,2.277646910E-1,1.083826372E0,4.800119662E-1,1.207049231E0
7.660562667E0,2.890934316E-1,9.284828818E-1,5.089404809E-1,1.097577281E0
7.670514666E0,3.818920331E-1,7.623409733E-1,5.381134093E-1,1.008251618E0
7.680467667E0,4.477335086E-1,6.355155967E-1,5.181194401E-1,9.342339763E-1
7.690420666E0,4.887990157E-1,5.922078285E-1,5.091275918E-1,9.213281146E-1
7.700373666E0,5.677990653E-1,5.631378843E-1,4.489521414E-1,9.171030916E-1
7.710326666E0,6.400821991E-1,3.877423185E-1,4.511085945E-1,8.738125034E-1
7.720279667E0,7.325651240E-1,-8.641417287E-2,6.157615095E-1,9.608752816E-1
7.730232666E0,8.667354805E-1,-7.644512334E-1,9.249675357E-1,1.480263836E0
7.740185666E0,1.056354106E0,-1.392691724E0,1.213266258E0,2.127789757E0
7.750138666E0,1.196221332E0,-1.664931799E0,1.427025844E0,2.497868317E0
7.760091667E0,1.173599770E0,-1.529390709E0,1.706653145E0,2.574691694E0
7.770044666E0,1.046844268E0,-1.239817879E0,1.981618461E0,2.561219049E0
7.779997166E0,9.105927408E-1,-8.699399740E-1,2.095066724E0,2.444438438E0
7.789949167E0,6.494829869E-1,-4.814617833E-1,2.023043060E0,2.178608919E0
7.799902166E0,3.114676196E-1,-1.869501024E-1,1.848185585E0,1.883547816E0
7.809855166E0,3.987472169E-2,-1.170342140E-2,1.406140759E0,1.406754704E0
7.819808166E0,-9.347629376E-2,2.180470571E-2,8.450513005E-1,8.504851340E-1
7.829761167E0,-1.664082857E-1,8.097063437E-2,3.907325846E-1,4.323423572E-1
7.839714166E0,-1.779507990E-1,1.117427762E-1,-1.455196559E-2,2.106292824E-1
7.849667166E0,-7.339088872E-2,4.649676651E-2,-3.166641498E-1,3.283661913E-1
7.859620166E0,2.220414363E-2,-6.067421794E-2,-4.498374099E-1,4.544536060E-1
7.869573167E0,1.394484919E-1,-2.244443496E-1,-3.892210793E-1,4.704404283E-1
7.879526166E0,3.204828201E-1,-3.641748966E-1,-3.818693751E-1,6.173789865E-1
7.889479166E0,4.920933736E-1,-5.791979199E-1,-2.479617047E-1,7.994442606E-1
7.899431166E0,6.524077642E-1,-8.264459720E-1,-1.304771090E-1,1.060977432E0
7.909384166E0,7.224541917E-1,-1.055549456E0,-2.300586998E-2,1.279317780E0
7.919337166E0,7.886787330E-1,-1.246322907E0,4.560243487E-2,1.475606490E0
7.929290167E0,8.374408570E-1,-1.373378517E0,1.216741258E-1,1.613158496E0
7.939243166E0,7.935358688E-1,-1.371093718E0,2.217989230E-1,1.599622431E0
7.949196166E0,7.164887162E-1,-1.303908771E0,3.148941976E-1,1.520753932E0
7.959149166E0,5.671772505E-1,-1.136391232E0,3.365288955E-1,1.313897547E0
7.969102167E0,4.525046173E-1,-9.248696680E-1,2.729836947E-1,1.065206285E0
7.979055166E0,3.620635766E-1,-7.183112933E-1,2.577452660E-1,8.446856040E-1
7.989008166E0,2.559732673E-1,-5.221138193E-1,2.982378191E-1,6.535066569E-1
7.998961166E0,2.052846684E-1,-3.691220064E-1,2.831332916E-1,5.084853110E-1
8.008914167E0,2.322225351E-1,-3.246800246E-1,2.451094329E-1,4.684261503E-1
8.018866166E0,2.895610261E-1,-3.455253484E-1,1.576982367E-1,4.776003435E-1
8.028819167E0,3.149796035E-1,-3.153796627E-1,-1.058316797E-1,4.581231566E-1
8.038772166E0,2.963314075E-1,-2.779218145E-1,-3.589839578E-1,5.421460320E-1
8.048725166E0,3.188855801E-1,-2.436224860E-1,-5.030201751E-1,6.434821096E-1
8.058678166E0,4.148162792E-1,-1.872515995E-1,-6.300211143E-1,7.772144566E-1
8.068631167E0,4.959074027E-1,-1.330780236E-1,-6.341358000E-1,8.159424767E-1
8.078584166E0,5.423959100E-1,-8.516286872E-2,-6.685963655E-1,8.651399524E-1
8.088537166E0,5.558891276E-1,-1.421159186E-1,-6.673672807E-1,8.801072343E-1
8.098490166E0,5.785440550E-1,-2.702511446E-1,-6.843838477E-1,9.360182454E-1
8.108443167E0,5.843741675E-1,-3.457499546E-1,-7.513327128E-1,1.012688029E0
8.118396166E0,5.480195062E-1,-3.399530981E-1,-8.366851044E-1,1.056378461E0
8.128349166E0,4.510015905E-1,-2.574094896E-1,-7.529208165E-1,9.146320768E-1
8.138301166E0,3.554151828E-1,-4.673299402E-2,-6.301532614E-1,7.249807292E-1
8.148254166E0,3.305035956E-1,1.509706496E-1,-4.708002627E-1,5.947080385E-1
8.158207166E0,3.030848319E-1,3.675765143E-1,-3.123699546E-1,5.696910546E-1
8.168160167E0,2.253553092E-1,5.314967731E-1,-2.018990940E-1,6.115857090E-1
8.178113166E0,1.752743091E-1,5.380047973E-1,-2.842442626E-1,6.332180084E-1
8.188066166E0,1.439748947E-1,4.532113264E-1,-3.939801282E-1,6.175351148E-1
8.198019166E0,8.131909188E-2,4.069112456E-1,-4.906123835E-1,6.425652242E-1
8.207972167E0,1.512521200E-2,4.197746449E-1,-5.531524479E-1,6.945625639E-1
8.217925166E0,-2.067823961E-2,4.532058081E-1,-5.535348558E-1,7.156982120E-1
8.227878166E0,-1.999502901E-2,4.941598892E-1,-5.168008929E-1,7.153159863E-1
8.237831166E0,3.172830775E-2,5.875195676E-1,-3.822482747E-1,7.016406996E-1
8.247784167E0,1.151702495E-1,6.320324834E-1,-3.105485469E-1,7.135612423E-1
8.257737166E0,2.194494387E-1,5.565115637E-1,-3.579297048E-1,6.971203987E-1
8.267689167E0,2.631597877E-1,4.066079944E-1,-3.974685770E-1,6.265496027E-1
8.277642166E0,2.574567607E-1,3.194638697E-1,-4.527119011E-1,6.109739872E-1
8.287595166E0,2.233395912E-1,2.260287988E-1,-5.419795883E-1,6.282606665E-1
8.297548166E0,1.767611647E-1,1.151695004E-1,-6.055358988E-1,6.412349397E-1
8.307501167E0,1.612751612E-1,6.724977739E-2,-5.556831229E-1,5.825083203E-1
8.317454166E0,1.166192992E-1,5.656684130E-2,-3.460616112E-1,3.695382351E-1
8.327407166E0,9.668667097E-2,5.646838881E-3,-5.137305200E-2,1.096329768E-1
8.337360166E0,1.268439781E-1,-9.028225221E-2,8.088453412E-2,1.754496728E-1
8.347313167E0,1.562851109E-1,-2.069251413E-1,2.074551183E-1,3.320853446E-1
8.357266166E0,1.444685824E-1,-2.689888038E-1,3.463709289E-1,4.617347380E-1
8.367219166E0,1.408087370E-1,-2.198845812E-1,4.474096459E-1,5.180267567E-1
8.377172166E0,2.255481211E-1,-1.107921651E-1,6.005856460E-1,6.510376157E-1
8.387124166E0,3.860640214E-1,1.115634128E-2,1.153557415E0,1.216496857E0
8.397077166E0,6.692573201E-1,2.313372666E-1,1.891863116E0,2.020041668E0
8.407030167E0,1.084492662E0,5.282776251E-1,2.144643511E0,2.460629467E0
8.416983166E0,1.381604673E0,5.865254313E-1,2.232448810E0,2.690106177E0
8.426936166E0,1.424343726E0,2.331117870E-1,2.381117191E0,2.784387766E0
8.436889166E0,1.266606313E0,-3.214464778E-1,2.261577299E0,2.611963107E0
8.446842167E0,1.019032498E0,-1.154775098E0,2.136084357E0,2.633398781E0
8.456795166E0,8.863964508E-1,-2.102545897E0,1.951053895E0,3.002167421E0
8.466748166E0,7.747210637E-1,-2.566375987E0,1.795744246E0,3.226635373E0
8.476701166E0,8.931369017E-1,-2.352312784E0,1.821424048E0,3.106228343E0
8.486654167E0,1.322869245E0,-1.948037317E0,1.832475870E0,2.983756063E0
8.496607166E0,1.543892389E0,-1.553943460E0,1.642616193E0,2.737979537E0
8.506560166E0,1.597683118E0,-1.102974322E0,1.043565441E0,2.204126251E0
8.516512166E0,1.181325038E0,-4.938877744E-1,5.925246745E-1,1.410864795E0
8.526465166E0,5.799985499E-1,1.250683614E-1,1.754720181E-1,6.187332560E-1
8.536418166E0,1.881346022E-1,5.333146725E-1,-5.363726932E-1,7.794323796E-1
8.546371167E0,-3.034916154E-1,7.647355543E-1,-9.419057500E-1,1.250645462E0
8.556324166E0,-6.326723150E-1,7.611736498E-1,-1.151947677E0,1.518763653E0
8.566277166E0,-7.904531436E-1,6.347490998E-1,-1.142529566E0,1.527447676E0
8.576230166E0,-8.288056889E-1,4.322355366E-1,-9.478172851E-1,1.331203979E0
8.586183167E0,-5.655304918E-1,1.200962546E-1,-6.906877309E-1,9.007204834E-1
8.596136166E0,-1.605155714E-1,-1.969667483E-1,-4.671200252E-1,5.317539530E-1
8.606089166E0,5.765208453E-2,-4.683920138E-1,-2.099594808E-1,5.165247574E-1
8.616042166E0,1.656645564E-1,-8.097273937E-1,-4.760569096E-2,8.278704604E-1
8.625995167E0,2.496087192E-1,-1.153567867E0,-3.700936675E-2,1.180844202E0
8.635948166E0,7.214689359E-2,-1.228744422E0,-1.984544992E-2,1.231020662E0
8.645900167E0,-2.903201044E-1,-1.009395629E0,-6.432404995E-2,1.052284601E0
8.655853166E0,-6.738860491E-1,-6.464470395E-1,-1.190580815E-1,9.413771873E-1
8.665806166E0,-9.205889945E-1,-3.175828204E-1,-2.026153779E-1,9.946838372E-1
8.675759166E0,-1.017706715E0,-1.196186833E-2,-2.752196699E-1,1.054331974E0
8.685712167E0,-9.996827457E-1,2.427938624E-1,-4.343750328E-1,1.116689805E0
8.695665166E0,-9.650344846E-1,3.715164413E-1,-5.686142403E-1,1.180100918E0
8.705618166E0,-9.646335118E-1,3.888408642E-1,-6.960636610E-1,1.251486976E0
8.715571166E0,-1.029472117E0,3.723312508E-1,-9.210177416E-1,1.430635201E0
8.725524167E0,-1.190245770E0,3.401692258E-1,-1.062940775E0,1.631638191E0
8.735477166E0,-1.289948106E0,3.288018000E-1,-1.140767215E0,1.753119100E0
8.745430166E0,-1.229565956E0,3.461314854E-1,-1.125126498E0,1.702218870E0
8.755383166E0,-9.685952928E-1,3.448160812E-1,-1.086312096E0,1.495710180E0
8.765336167E0,-6.824150902E-1,3.658920776E-1,-1.024729806E0,1.284382553E0
8.775286083E0,-3.929113302E-1,3.641494612E-1,-9.699320394E-1,1.108039848E0
8.785238083E0,-1.624699301E-1,3.411279499E-1,-1.061484234E0,1.126726912E0
8.795191083E0,-1.412527965E-1,3.656111189E-1,-1.182311098E0,1.245585555E0
8.805144083E0,-2.649955210E-1,4.209737261E-1,-1.183800969E0,1.284066290E0
8.815097083E0,-4.158677913E-1,5.274911381E-1,-1.146557713E0,1.328829376E0
8.825050083E0,-5.029957630E-1,6.213751289E-1,-1.081565326E0,1.344951800E0
8.835003083E0,-4.771811830E-1,6.451196484E-1,-9.034807724E-1,1.208370286E0
8.844956083E0,-3.432936855E-1,6.328399108E-1,-7.713693666E-1,1.055152883E0
8.854909083E0,-2.227163512E-1,5.554694802E-1,-6.360712284E-1,8.733473101E-1
8.864862083E0,-1.812157381E-1,4.930313035E-1,-5.557550436E-1,7.647108463E-1
8.874815083E0,-2.370623120E-1,5.347241438E-1,-4.645291239E-1,7.469375856E-1
8.884768083E0,-3.734948467E-1,6.748904546E-1,-4.039753586E-1,8.707305074E-1
8.894721083E0,-4.882080450E-1,8.519926764E-1,-2.650940466E-1,1.017110353E0
8.904674083E0,-4.573518494E-1,1.023051874E0,-2.034029979E-1,1.138937501E0
8.914626083E0,-2.609180748E-1,1.155288702E0,-1.163017040E-1,1.190082482E0
8.924579083E0,-1.594287202E-2,1.238098652E0,-2.515706062E-2,1.238456832E0
8.934532083E0,1.369861929E-1,1.331509676E0,-1.586525023E-2,1.338631742E0
8.944485083E0,1.613336699E-1,1.413443931E0,-3.528736174E-2,1.423059204E0
8.954438083E0,1.095699508E-1,1.443813054E0,-9.701583266E-2,1.451211143E0
8.964391083E0,4.699615527E-2,1.532854308E0,-1.481696141E-1,1.540715808E0
8.974344083E0,1.897297226E-2,1.684601248E0,-1.168197674E-1,1.688753445E0
8.984297083E0,1.150836925E-1,1.846382303E0,1.181956172E-2,1.850003126E0
8.994250083E0,3.637110296E-1,1.942587858E0,2.480055588E-1,1.991843381E0
9.004203083E0,6.327836314E-1,1.925515596E0,4.754856366E-1,2.081853027E0
9.014156083E0,8.303503771E-1,1.767699246E0,6.831091547E-1,2.069028876E0
9.024109083E0,8.807900673E-1,1.565814478E0,8.273354065E-1,1.977890289E0
9.034062083E0,9.169901794E-1,1.357422343E0,9.973759460E-1,1.917869960E0
9.044015083E0,8.918386006E-1,1.135766896E0,1.179251250E0,1.864396965E0
9.053967083E0,8.346255688E-1,9.291325805E-1,1.310079192E0,1.810026155E0
9.063920083E0,7.324127309E-1,8.073927467E-1,1.436619955E0,1.803382475E0
9.073873083E0,6.020981745E-1,8.259249850E-1,1.486670367E0,1.804123907E0
9.083826083E0,4.386323540E-1,9.385840930E-1,1.508417916E0,1.829935259E0
9.093779083E0,3.517581879E-1,1.070371928E0,1.492633358E0,1.870129468E0
9.103732083E0,3.942841103E-1,1.132785108E0,1.382251375E0,1.830104075E0
9.113685083E0,5.767453053E-1,9.359829591E-1,1.288584242E0,1.693856132E0
9.123638083E0,7.505602225E-1,3.931717506E-1,1.418509959E0,1.652299966E0
9.133591083E0,9.475791572E-1,-3.319510373E-1,1.581464258E0,1.873266385E0
9.143544083E0,1.109896256E0,-8.549927366E-1,1.758934270E0,2.248717866E0
9.153497083E0,1.122560813E0,-1.010235801E0,1.853862646E0,2.391134848E0
9.163450083E0,9.768153816E-1,-9.483606376E-1,1.950842811E0,2.378937549E0
9.173403083E0,8.838690649E-1,-9.030651815E-1,2.072160841E0,2.427056200E0
9.183355083E0,7.074154454E-1,-7.172091662E-1,2.054884658E0,2.288531529E0
9.193308083E0,4.184575962E-1,-4.054114348E-1,1.961755469E0,2.046448072E0
9.203261083E0,1.766425028E-1,-8.223699510E-2,1.808409900E0,1.818876539E0
9.213214083E0,1.444738632E-1,8.511528701E-2,1.552398918E0,1.561428740E0
9.223167083E0,2.866718072E-1,5.822591566E-2,1.133814291E0,1.170942283E0
9.233120083E0,3.125538130E-1,-5.323867925E-2,8.730618024E-1,9.288493709E-1
9.243073083E0,3.436356745E-1,-3.242030380E-1,6.972553235E-1,8.422339775E-1
9.253026083E0,4.445832846E-1,-7.031346258E-1,5.505159384E-1,9.975572151E-1
9.262979083E0,5.379792888E-1,-1.127061415E0,4.843242878E-1,1.339499595E0
9.272932083E0,6.184469895E-1,-1.518564736E0,4.165082806E-1,1.691743090E0
9.282885083E0,5.867007381E-1,-1.835528409E0,4.018153971E-1,1.968460797E0
9.292838083E0,5.158110324E-1,-2.014575123E0,3.130248427E-1,2.102987993E0
9.302791083E0,4.528313304E-1,-2.103616669E0,1.870781565E-1,2.159920725E0
9.312744083E0,4.180809624E-1,-2.098978511E0,1.250567400E-1,2.143861392E0
9.322696083E0,4.248043467E-1,-2.022213487E0,5.753075480E-2,2.067151641E0
9.332649083E0,4.376420183E-1,-1.867376731E0,2.286553681E-2,1.918110848E0
9.342602083E0,4.287211772E-1,-1.610815965E0,-1.233318114E-1,1.671448670E0
9.352555083E0,4.000280860E-1,-1.340342480E0,-3.052498001E-1,1.431683580E0
9.362508083E0,3.257321580E-1,-1.118441961E0,-5.326029932E-1,1.280890240E0
9.372461083E0,2.339809573E-1,-9.617192595E-1,-6.983388126E-1,1.211333199E0
9.382414083E0,2.091160199E-1,-8.522221796E-1,-8.475381213E-1,1.219972549E0
9.392367083E0,2.454405681E-1,-7.921854544E-1,-9.617161167E-1,1.269919980E0
9.402320083E0,3.443847028E-1,-7.820604888E-1,-1.113164849E0,1.403337242E0
9.412273083E0,4.589350927E-1,-8.353694808E-1,-1.237508814E0,1.562015254E0
9.422226083E0,5.637025791E-1,-8.702618632E-1,-1.358049164E0,1.708629229E0
9.432179083E0,6.777097627E-1,-8.841180101E-1,-1.508131987E0,1.874944604E0
9.442132083E0,8.113569396E-1,-9.056315976E-1,-1.647293381E0,2.047448206E0
9.452085083E0,8.908287864E-1,-9.503871363E-1,-1.770031115E0,2.197685552E0
9.462038083E0,8.384603921E-1,-9.724106010E-1,-1.945086812E0,2.330656755E0
9.471990083E0,6.737919089E-1,-1.030347445E0,-2.099090193E0,2.433473039E0
9.481943083E0,4.624949507E-1,-1.254782073E0,-2.090704701E0,2.481819046E0
9.491896083E0,2.407414167E-1,-1.495823014E0,-2.061403719E0,2.558286186E0
9.501849083E0,2.694727523E-1,-1.652802920E0,-2.084881459E0,2.674154774E0
9.511802083E0,5.248555787E-1,-1.881549797E0,-2.207574170E0,2.947725688E0
9.521755083E0,8.251188002E-1,-1.981978357E0,-2.145397217E0,3.035092826E0
9.531708083E0,1.118360027E0,-1.810795710E0,-1.801543515E0,2.788416986E0
9.541661083E0,1.324477668E0,-1.339619910E0,-1.378080556E0,2.334079822E0
9.551614083E0,1.436331688E0,-7.263608627E-1,-8.556435317E-1,1.822847957E0
9.561567083E0,1.293857554E0,2.512840927E-3,-6.343813831E-1,1.441011250E0
9.571520083E0,1.094344051E0,4.879637410E-1,-2.767949098E-1,1.229761333E0
9.581473083E0,1.007839977E0,6.292370758E-1,1.715222239E-2,1.188265507E0
9.591426083E0,1.020893374E0,6.506856861E-1,5.899197400E-2,1.212062373E0
9.601379083E0,1.023703327E0,6.172794467E-1,2.608735263E-2,1.195693509E0
9.611331083E0,9.768310960E-1,5.280194340E-1,9.540960252E-2,1.114498320E0
9.621284083E0,8.230857233E-1,5.169957514E-1,1.536203885E-1,9.840497643E-1
9.631237083E0,7.146553217E-1,5.909782322E-1,2.586188400E-1,9.627415043E-1
9.641190083E0,6.067239799E-1,7.200895777E-1,4.254691386E-1,1.033279718E0
9.651143083E0,3.780560769E-1,1.000973445E0,3.741416949E-1,1.133514995E0
9.661096083E0,1.662440520E-1,1.284874184E0,2.516933978E-1,1.319806168E0
9.671049083E0,-7.002234433E-2,1.349553452E0,2.951768017E-1,1.383230637E0
9.681002083E0,-2.089536135E-1,1.125509199E0,2.277244914E-1,1.167172229E0
9.690955083E0,-1.938292238E-1,8.270138828E-1,2.669224709E-1,8.903759519E-1
9.700908083E0,-2.493724003E-1,6.786847128E-1,4.283524007E-1,8.404078252E-1
9.710861083E0,-2.259062997E-1,5.686020342E-1,5.415849012E-1,8.171022793E-1
9.720814083E0,-1.844914214E-1,3.487825399E-1,7.022143471E-1,8.054758432E-1
9.730767083E0,-1.799831450E-1,1.567242368E-1,9.457298291E-1,9.753775313E-1
9.740720083E0,-2.009616026E-1,1.324747371E-1,1.132448967E0,1.157745993E0
9.750673083E0,-2.087980410E-1,1.402086300E-1,1.169344313E0,1.196085784E0
9.760626083E0,-2.489929708E-1,6.033676051E-2,1.186935076E0,1.214270521E0
9.770578083E0,-2.467763279E-1,-3.719070353E-2,1.172656175E0,1.198917933E0
9.780530791E0,-2.070643781E-1,1.665740177E-2,1.226173401E0,1.243645583E0
9.790483791E0,-8.519086227E-2,1.340456647E-1,1.235219629E0,1.245388797E0
9.800436791E0,4.145507790E-2,1.610918145E-1,1.314631249E0,1.325112983E0
9.810389792E0,1.712224811E-1,4.561054789E-2,1.564387465E0,1.574390549E0
9.820342791E0,3.563080161E-1,-3.138369479E-1,1.819332499E0,1.880271197E0
9.830295791E0,4.708096182E-1,-8.388255507E-1,2.073345487E0,2.285618409E0
9.840248792E0,4.504000216E-1,-1.193085835E0,2.275660318E0,2.608628734E0
9.850201792E0,3.130310554E-1,-1.251096281E0,2.423873786E0,2.745613680E0
9.860154791E0,1.892132307E-1,-1.108917505E0,2.572107720E0,2.807354235E0
9.870107791E0,1.856943398E-1,-9.914135402E-1,2.792740708E0,2.969306966E0
9.880060792E0,2.225876393E-1,-9.825017989E-1,2.816836499E0,2.991558608E0
9.890013792E0,5.651107349E-2,-9.409390591E-1,2.412122052E0,2.589766903E0
9.899966791E0,-3.507704836E-1,-6.024395058E-1,1.814919605E0,1.944198154E0
9.909919791E0,-7.764136134E-1,-1.211709729E-1,1.157849856E0,1.399327264E0
9.919871791E0,-9.581512155E-1,4.687940830E-1,3.864477450E-1,1.134532284E0
9.929824791E0,-9.931075517E-1,1.034925888E0,-2.526307064E-1,1.456419059E0
9.939777792E0,-8.008035193E-1,1.329500865E0,-6.417956525E-1,1.679511978E0
9.949730792E0,-4.178679410E-1,1.316361294E0,-8.935562932E-1,1.644950918E0
9.959683791E0,7.659212052E-2,1.054462166E0,-9.887092030E-1,1.447516045E0
9.969636791E0,5.746744042E-1,6.337927146E-1,-9.454199266E-1,1.275054004E0
9.979589792E0,9.319820749E-1,1.717112352E-1,-7.552094167E-1,1.211782406E0
9.989542792E0,1.102298384E0,-2.620350757E-1,-5.005924112E-1,1.238675450E0
9.999495791E0,1.080532562E0,-6.832319462E-1,-1.990392208E-1,1.293821132E0
1.000944879E1,1.070742423E0,-1.040688319E0,6.241493404E-2,1.494462156E0
1.001940179E1,9.816896937E-1,-1.242158812E0,1.877616960E-1,1.594342380E0
1.002935479E1,8.868387926E-1,-1.314220629E0,2.286582917E-1,1.601856273E0
1.003930779E1,8.045912725E-1,-1.179120053E0,1.194510144E-1,1.432466321E0
1.004926079E1,6.278536977E-1,-8.360636184E-1,-1.075039834E-1,1.051075519E0
1.005921379E1,2.604842480E-1,-4.150623373E-1,-3.538115108E-1,6.044099374E-1
1.006916679E1,-1.105508213E-1,-4.683824390E-2,-5.815804410E-1,5.938443521E-1
1.007911879E1,-3.731530038E-1,2.375227437E-1,-8.071859014E-1,9.204397305E-1
1.008907179E1,-4.732050763E-1,4.223019212E-1,-1.042070308E0,1.219906752E0
1.009902479E1,-5.660809341E-1,5.566620930E-1,-1.134583200E0,1.384774114E0
1.010897779E1,-5.041672526E-1,6.009880807E-1,-1.232885420E0,1.461293178E0
1.011893079E1,-4.146904544E-1,5.718087204E-1,-1.308526756E0,1.487002238E0
1.012888379E1,-3.568791794E-1,5.341783793E-1,-1.355187537E0,1.499747496E0
1.013883679E1,-4.037522142E-1,4.735585405E-1,-1.295582190E0,1.437291464E0
1.014878979E1,-5.116084193E-1,4.417642323E-1,-1.249265226E0,1.420409242E0
1.015874279E1,-5.373989526E-1,4.402329196E-1,-1.175959852E0,1.365827307E0
1.016869579E1,-5.076082294E-1,4.148318839E-1,-1.092181531E0,1.273817924E0
1.017864879E1,-4.290512891E-1,3.527293374E-1,-9.684100091E-1,1.116387451E0
1.018860179E1,-3.366335241E-1,3.722327252E-1,-8.567281902E-1,9.929060998E-1
1.019855479E1,-2.460710989E-1,4.410411510E-1,-7.764657998E-1,9.262653080E-1
1.020850779E1,-1.865670002E-1,4.827510213E-1,-6.798662889E-1,8.544436581E-1
1.021846079E1,-2.238661513E-1,5.484287748E-1,-6.254713959E-1,8.614549563E-1
1.022841379E1,-2.836893253E-1,6.040443472E-1,-4.948890370E-1,8.308215004E-1
1.023836579E1,-2.764291848E-1,6.634834139E-1,-4.176104808E-1,8.312772392E-1
1.024831879E1,-3.206250902E-1,7.052554840E-1,-2.533925986E-1,8.151034015E-1
1.025827179E1,-3.782595965E-1,7.858347204E-1,-8.343216598E-2,8.761149790E-1
1.026822479E1,-4.376319319E-1,9.289152103E-1,-3.240117610E-2,1.027353402E0
1.027817779E1,-4.950972344E-1,1.109965399E0,1.056182563E-1,1.219958882E0
1.028813079E1,-5.294612843E-1,1.302044533E0,2.596631527E-1,1.429361455E0
1.029808379E1,-5.129107038E-1,1.438250890E0,3.259004116E-1,1.561362895E0
1.030803679E1,-3.707749412E-1,1.521029922E0,3.170050424E-1,1.597341002E0
1.031798979E1,-1.881762818E-1,1.576800519E0,2.663529521E-1,1.610172066E0
1.032794279E1,-5.487716043E-2,1.603364712E0,1.972692686E-1,1.616386422E0
1.033789579E1,2.739164717E-2,1.645489807E0,1.133003283E-1,1.649613280E0
1.034784879E1,8.299874112E-2,1.693497494E0,1.202596843E-2,1.695572817E0
1.035780179E1,1.256111292E-1,1.704201700E0,6.182787359E-2,1.709942770E0
1.036775479E1,1.655319708E-1,1.724396813E0,1.703346545E-1,1.740677770E0
1.037770779E1,2.271491619E-1,1.719603266E0,3.101737404E-1,1.762055584E0
1.038766079E1,3.156430066E-1,1.650505841E0,4.117825609E-1,1.730134364E0
1.039761279E1,3.773029920E-1,1.533994807E0,5.140784293E-1,1.661256828E0
1.040756579E1,3.946569799E-1,1.437961453E0,5.719126546E-1,1.597050831E0
1.041751879E1,3.738059916E-1,1.323590645E0,6.678964537E-1,1.528956765E0
1.042747179E1,3.394259716E-1,1.207985491E0,7.520665383E-1,1.462888586E0
1.043742479E1,2.976871393E-1,1.084481333E0,8.038898259E-1,1.382373411E0
1.044737779E1,2.872893829E-1,8.752574319E-1,8.743826884E-1,1.270100723E0
1.045733079E1,2.592974642E-1,6.654558990E-1,9.368596029E-1,1.178037624E0
1.046728379E1,2.369542482E-1,5.056916218E-1,9.525827658E-1,1.104212506E0
1.047723679E1,2.593282900E-1,3.933070406E-1,8.852666956E-1,1.002815393E0
1.048718979E1,3.005430838E-1,2.936818148E-1,8.895082659E-1,9.837683206E-1
1.049714279E1,4.111843908E-1,1.160157021E-1,1.004045280E0,1.091164136E0
1.050709579E1,5.962323574E-1,-4.254010186E-1,1.340993421E0,1.527979845E0
1.051704879E1,7.981785581E-1,-1.201294376E0,1.744983398E0,2.263882560E0
1.052700179E1,9.372537053E-1,-1.692695695E0,2.152429664E0,2.894238532E0
1.053695479E1,8.586590139E-1,-1.775169356E0,2.467359529E0,3.158541529E0
1.054690779E1,7.864108904E-1,-1.584806234E0,2.544926353E0,3.099468185E0
1.055685979E1,7.366762282E-1,-1.255631966E0,2.340586631E0,2.756383369E0
1.056681279E1,4.786581165E-1,-8.552924795E-1,2.167107344E0,2.378443411E0
1.057676579E1,3.799246643E-3,-4.048589460E-1,1.904773183E0,1.947327934E0
1.058671879E1,-4.027299382E-1,-8.948030658E-2,1.402869242E0,1.462272286E0
1.059667179E1,-4.900658881E-1,-1.323745304E-1,7.276444727E-1,8.872170364E-1
1.060662479E1,-4.045655619E-1,-2.544268249E-1,2.390511328E-1,5.343704214E-1
1.061657779E1,-2.935631163E-1,-2.912107084E-1,4.383657575E-3,4.135241183E-1
1.062653079E1,9.142381143E-2,-5.763531764E-1,-1.712725478E-1,6.081739742E-1
1.063648379E1,5.319289555E-1,-1.066186638E0,-1.399759108E-1,1.199706471E0
1.064643679E1,8.631256288E-1,-1.511421046E0,-7.323813021E-2,1.742051450E0
1.065638979E1,9.699757473E-1,-1.814641716E0,7.120914638E-2,2.058846340E0
1.066634279E1,9.405291693E-1,-2.062463819E0,2.834396857E-1,2.284445267E0
1.067629579E1,9.072747383E-1,-2.280178315E0,4.177367806E-1,2.489350240E0
1.068624879E1,7.696047501E-1,-2.323868272E0,5.468456411E-1,2.508325213E0
1.069620179E1,6.560931911E-1,-2.215855581E0,6.351614016E-1,2.396644370E0
1.070615479E1,5.432287728E-1,-2.058286568E0,6.561511517E-1,2.227594090E0
1.071610779E1,3.662449571E-1,-1.869948336E0,5.851028037E-1,1.993285589E0
1.072606079E1,1.631042982E-1,-1.641138748E0,4.203557485E-1,1.701951338E0
1.073601279E1,2.394626671E-2,-1.391389842E0,1.786505646E-1,1.403016443E0
1.074596579E1,-2.913614569E-2,-1.122826058E0,-9.282454848E-2,1.127033126E0
1.075591879E1,-3.712519644E-2,-8.716896071E-1,-3.810262066E-1,9.520514804E-1
1.076587179E1,-2.936036814E-2,-6.570921148E-1,-6.212859589E-1,9.047808140E-1
1.077582517E1,1.977542952E-2,-5.214873267E-1,-8.677782583E-1,1.012610095E0
1.078577817E1,1.220734175E-1,-4.654437381E-1,-9.836256337E-1,1.095015607E0
1.079573117E1,2.036039959E-1,-3.997297684E-1,-9.886530697E-1,1.085667245E0
1.080568417E1,2.766720452E-1,-3.144547062E-1,-1.074335829E0,1.153094383E0
1.081563717E1,3.294572729E-1,-3.429177826E-1,-1.115372173E0,1.212513829E0
1.082559017E1,3.684252742E-1,-4.168857915E-1,-1.129003202E0,1.258641798E0
1.083554317E1,3.887460662E-1,-4.197947082E-1,-1.111128849E0,1.249783349E0
1.084549617E1,4.673544985E-1,-4.679752535E-1,-1.130104233E0,1.309410800E0
1.085544917E1,5.645849240E-1,-5.206402478E-1,-1.082125490E0,1.326958168E0
1.086540217E1,6.022142052E-1,-5.312460372E-1,-1.032958592E0,1.308391285E0
1.087535517E1,5.712191018E-1,-5.005398593E-1,-9.806821454E-1,1.240390617E0
1.088530817E1,5.344868565E-1,-4.829079094E-1,-8.848889655E-1,1.141010399E0
1.089526117E1,5.164247343E-1,-4.146676868E-1,-7.969047421E-1,1.036195428E0
1.090521317E1,5.471541183E-1,-3.249665382E-1,-7.945775503E-1,1.018005090E0
1.091516617E1,5.539579750E-1,-2.574451759E-1,-7.312633145E-1,9.528344514E-1
1.092511917E1,4.915792937E-1,-1.666033817E-1,-6.860614139E-1,8.602831815E-1
1.093507217E1,4.264635307E-1,-3.085329020E-2,-6.624252141E-1,7.884353067E-1
1.094502517E1,4.210164839E-1,1.212582974E-1,-6.970278668E-1,8.232899256E-1
1.095497817E1,4.204061077E-1,2.446700330E-1,-7.040848714E-1,8.557687927E-1
1.096493117E1,4.371844737E-1,3.373940276E-1,-7.489160585E-1,9.305053770E-1
1.097488417E1,4.603917803E-1,3.823630994E-1,-8.226512021E-1,1.017308769E0
1.098483717E1,4.094221862E-1,4.241138637E-1,-7.971479863E-1,9.914353272E-1
1.099479017E1,3.450949933E-1,4.735617930E-1,-7.665261179E-1,9.648386475E-1
1.100474317E1,3.202346789E-1,5.234672304E-1,-7.257394499E-1,9.504030408E-1
1.101469617E1,3.262957565E-1,5.536509962E-1,-6.165462059E-1,8.905770995E-1
1.102464917E1,3.624236555E-1,6.045162906E-1,-4.953679240E-1,8.614988286E-1
1.103460217E1,4.983600904E-1,6.062330331E-1,-3.835621440E-1,8.734993924E-1
1.104455517E1,6.360492282E-1,5.519626126E-1,-2.386605388E-1,8.753171992E-1
1.105450817E1,7.379073595E-1,5.158756442E-1,-1.098931557E-1,9.070344299E-1
1.106446117E1,7.635268617E-1,5.003402500E-1,-1.264577329E-2,9.129477257E-1
1.107441317E1,8.284930091E-1,4.446757802E-1,3.377644122E-2,9.408921636E-1
1.108436617E1,8.660593962E-1,3.288003748E-1,1.250193179E-1,9.347718406E-1
1.109431917E1,9.227666438E-1,1.975098816E-1,2.265462774E-1,9.704801121E-1
1.110427217E1,9.490146486E-1,1.165168542E-1,3.005644262E-1,1.002269402E0
1.111422517E1,8.607958058E-1,3.591928130E-2,3.481286019E-1,9.292217913E-1
1.112417817E1,7.549283119E-1,-1.328101845E-2,4.727760369E-1,8.908480917E-1
1.113413117E1,5.799874767E-1,-2.125382490E-2,6.084975135E-1,8.408962018E-1
1.114408417E1,4.301385789E-1,-1.017092099E-2,7.650935501E-1,8.777760449E-1
1.115403717E1,3.459609660E-1,-5.551558502E-2,8.919325215E-1,9.582873228E-1
1.116399017E1,3.857809066E-1,-1.182856095E-1,8.807321799E-1,9.687660017E-1
1.117394317E1,4.527135456E-1,-1.911308068E-1,8.766724581E-1,1.005005044E0
1.118389617E1,4.773036456E-1,-2.096781201E-1,8.492724055E-1,9.965175878E-1
1.119384917E1,4.856425791E-1,-2.761804771E-1,7.894723463E-1,9.671561178E-1
1.120380217E1,4.962704052E-1,-5.569933377E-1,8.602879751E-1,1.138692800E0
1.121375517E1,5.791176303E-1,-9.921024884E-1,1.050330670E0,1.556547170E0
1.122370817E1,6.343262731E-1,-1.314893205E0,1.175656967E0,1.874428783E0
1.123366117E1,5.982034904E-1,-1.389974962E0,1.281307967E0,1.982833306E0
1.124361417E1,4.946127561E-1,-1.332718149E0,1.449664509E0,2.030346431E0
1.125356617E1,3.388494361E-1,-1.186566921E0,1.553970650E0,1.984334845E0
1.126351917E1,1.878204605E-1,-9.404206304E-1,1.522334874E0,1.799213983E0
1.127347217E1,1.427767636E-2,-6.993326931E-1,1.430213746E0,1.592099691E0
1.128342517E1,-1.879288167E-1,-4.176767736E-1,1.209163851E0,1.292999747E0
1.129337817E1,-3.600020676E-1,-9.048536986E-2,9.320233709E-1,1.003223133E0
1.130333117E1,-4.384296748E-1,2.902109807E-1,5.880527240E-1,7.888276106E-1
1.131328417E1,-4.696081981E-1,6.421665122E-1,2.512197733E-1,8.342787685E-1
1.132323717E1,-4.619541929E-1,9.312134584E-1,-5.543686688E-2,1.040977150E0
1.133319017E1,-4.789629027E-1,1.037645136E0,-2.178912288E-1,1.163438643E0
1.134314317E1,-4.362706636E-1,9.460517183E-1,-3.719074738E-1,1.106192169E0
1.135309617E1,-3.758192611E-1,7.961736940E-1,-2.430512130E-1,9.133490900E-1
1.136304917E1,-4.028814542E-1,7.144098848E-1,2.401042163E-1,8.546022375E-1
1.137300217E1,-4.020687278E-1,5.799174929E-1,7.294933623E-1,1.014950307E0
1.138295517E1,-2.851620927E-1,2.838554227E-1,1.123125581E0,1.193022377E0
1.139290817E1,-1.599439330E-1,6.550050974E-3,1.465569520E0,1.474285923E0
1.140286117E1,-1.743558212E-1,-3.692253560E-2,1.675054207E0,1.684508778E0
1.141281417E1,-1.401044399E-1,7.818297431E-2,1.700439894E0,1.707992290E0
1.142276717E1,-1.244487758E-1,1.893326966E-1,1.478746805E0,1.496003503E0
1.143271917E1,-2.950507211E-1,3.248477666E-1,1.141564191E0,1.223008504E0
1.144267217E1,-5.510644803E-1,5.437451550E-1,7.257119679E-1,1.061126154E0
1.145262517E1,-7.314852894E-1,7.585446686E-1,2.984225911E-1,1.095224537E0
1.146257817E1,-7.635835066E-1,8.745589820E-1,-3.475760400E-2,1.161516800E0
1.147253117E1,-8.047978985E-1,9.631706116E-1,-3.698919386E-1,1.308517226E0
1.148248417E1,-8.213863032E-1,1.008544713E0,-6.508284312E-1,1.454446817E0
1.149243717E1,-7.036673802E-1,9.639696336E-1,-8.948561293E-1,1.491694583E0
1.150239017E1,-5.776746471E-1,8.448533723E-1,-1.111787245E0,1.511143970E0
1.151234317E1,-3.665471850E-1,7.151168132E-1,-1.223680733E0,1.463947893E0
1.152229617E1,-2.237057731E-1,5.414403288E-1,-1.460486535E0,1.573601863E0
1.153224917E1,-1.277022762E-1,2.250659086E-1,-1.487533416E0,1.509873570E0
1.154220217E1,-1.117928064E-1,1.117725239E-1,-1.494519669E0,1.502857202E0
1.155215517E1,-1.743584159E-1,1.445148119E-1,-1.378699191E0,1.397174595E0
1.156210817E1,-2.239591037E-1,1.610549770E-1,-1.308012786E0,1.336784887E0
1.157206117E1,-1.592796527E-1,1.609055807E-1,-1.202999132E0,1.224119081E0
1.158201417E1,-1.070266679E-1,1.894708371E-1,-1.056655603E0,1.078830371E0
1.159196717E1,-3.364199180E-2,2.054229916E-1,-9.535574967E-1,9.760134674E-1
1.160192017E1,-1.279093042E-2,1.709546055E-1,-8.036068207E-1,8.216891184E-1
1.161187317E1,-7.407015245E-2,1.487916116E-1,-7.793437994E-1,7.968701831E-1
1.162182517E1,-1.583225366E-1,1.483440073E-1,-6.950117469E-1,7.280887984E-1
1.163177817E1,-3.882476641E-1,1.919863824E-1,-4.818912613E-1,6.479307119E-1
1.164173117E1,-4.755290522E-1,2.866594550E-1,-4.356257522E-1,7.057416798E-1
1.165168417E1,-4.974800844E-1,2.925004580E-1,-3.092311692E-1,6.547265600E-1
1.166163717E1,-6.488320456E-1,3.457549247E-1,6.070345402E-2,7.377088862E-1
1.167159017E1,-6.489422657E-1,4.944893798E-1,2.184326810E-1,8.446056163E-1
1.168154317E1,-6.342821266E-1,7.632862488E-1,2.636006677E-1,1.026842259E0
1.169149617E1,-6.152840844E-1,9.916934757E-1,2.604501879E-1,1.195769524E0
1.170144917E1,-5.240940885E-1,1.057407555E0,-1.698089898E-2,1.180285432E0
1.171140217E1,-5.328724037E-1,1.074624755E0,-2.574663538E-1,1.226808985E0
1.172135517E1,-5.982274274E-1,1.126073674E0,-3.671191889E-1,1.326911630E0
1.173130817E1,-6.765142263E-1,1.160635031E0,-3.586682081E-1,1.390463253E0
1.174126117E1,-6.754909636E-1,1.168878728E0,-1.998853129E-1,1.364741610E0
1.175121417E1,-5.934641394E-1,1.162490133E0,7.524138629E-2,1.307380687E0
1.176116717E1,-5.397330149E-1,1.006310126E0,2.112464529E-1,1.161291032E0
1.177112017E1,-4.815675814E-1,7.740371588E-1,3.451927149E-1,9.747814468E-1
1.178107296E1,-4.860500204E-1,6.235043194E-1,4.173789310E-1,8.939840215E-1
1.179102596E1,-5.035629063E-1,5.276442620E-1,4.325015849E-1,8.479632591E-1
1.180097796E1,-5.285878930E-1,5.169684888E-1,5.727634245E-1,9.352644115E-1
1.181093096E1,-5.324855373E-1,5.826243152E-1,7.071692777E-1,1.059754843E0
1.182088396E1,-5.613815269E-1,6.694971290E-1,8.654972595E-1,1.229821585E0
1.183083696E1,-5.914011320E-1,7.491803527E-1,1.003082829E0,1.384630514E0
1.184078996E1,-6.051386536E-1,7.421318997E-1,1.052953146E0,1.423257838E0
1.185074296E1,-5.030229525E-1,6.083973800E-1,1.133935329E0,1.381661606E0
1.186069596E1,-3.309290902E-1,1.998957648E-1,1.417412437E0,1.469193791E0
1.187064896E1,-9.319635831E-2,-4.552620180E-1,1.813272445E0,1.871872331E0
1.188060196E1,9.072729841E-2,-9.147819784E-1,2.098733513E0,2.291231081E0
1.189055496E1,1.262970441E-1,-9.995074023E-1,2.288625934E0,2.500554870E0
1.190050796E1,4.203921475E-2,-8.811270862E-1,2.397133300E0,2.554290566E0
1.191046096E1,-4.740962651E-2,-6.752574404E-1,2.510385096E0,2.600048771E0
1.192041396E1,-6.623535857E-2,-5.429314419E-1,2.361838337E0,2.424343623E0
1.193036696E1,-1.899799834E-1,-3.503797068E-1,2.153621326E0,2.190192491E0
1.194031996E1,-4.490216867E-1,-1.046634060E-1,2.044638582E0,2.095977537E0
1.195027296E1,-5.746217427E-1,6.353635691E-2,1.784973090E0,1.876261162E0
1.196022596E1,-5.029597661E-1,1.544844608E-1,1.369600924E0,1.467188013E0
1.197017896E1,-3.631723914E-1,1.635989544E-1,9.309474832E-1,1.012581859E0
1.198013196E1,-3.445764549E-1,5.899701722E-2,6.412664795E-1,7.303672221E-1
1.199008396E1,-2.977806399E-1,-1.865249368E-1,5.329310220E-1,6.383418644E-1
1.200003696E1,-2.565855804E-1,-5.138676372E-1,4.667797172E-1,7.401212151E-1
1.200998996E1,-3.081620789E-1,-9.641964325E-1,1.066438580E-1,1.017846521E0
1.201994296E1,-4.627552249E-2,-1.413822392E0,5.156858289E-1,1.505645063E0
1.202989596E1,-6.708269320E-2,-1.555318141E0,4.479411578E-1,1.619927741E0
1.203984896E1,-1.333172478E-1,-1.668787161E0,6.040121144E-1,1.779734450E0
1.204980196E1,-2.478649333E-1,-1.624856153E0,6.492286330E-1,1.767227309E0
1.205975496E1,-4.096332707E-1,-1.418903477E0,5.064799726E-1,1.561284233E0
1.206970796E1,-6.033397212E-1,-1.171345741E0,3.279200399E-1,1.357792774E0
1.207966096E1,-7.659590842E-1,-8.943824317E-1,7.916896105E-2,1.180203786E0
1.208961396E1,-8.458066146E-1,-5.895789204E-1,-2.606817377E-1,1.063459967E0
1.209956696E1,-7.879709275E-1,-3.906067964E-1,-5.820447099E-1,1.054631640E0
1.210951996E1,-6.323237479E-1,-2.885875744E-1,-8.297122997E-1,1.082376372E0
1.211947296E1,-5.050615112E-1,-1.882091542E-1,-1.107487203E0,1.231680852E0
1.212942596E1,-4.124806089E-1,-1.381278983E-1,-1.363171325E0,1.430893298E0
1.213937896E1,-3.314710540E-1,-1.987014710E-1,-1.446655532E0,1.497386911E0
1.214933196E1,-3.078176048E-1,-2.665365547E-1,-1.547195481E0,1.599877267E0
1.215928496E1,-2.297375781E-1,-3.514722591E-1,-1.710811685E0,1.761586990E0
1.216923796E1,-1.234183137E-1,-5.383609658E-1,-1.631982447E0,1.722913613E0
1.217919096E1,-2.495529514E-2,-7.240778904E-1,-1.702674699E0,1.850408790E0
1.218914296E1,7.438718118E-2,-8.532329439E-1,-1.724978904E0,1.925900342E0
1.219909596E1,1.477175878E-1,-9.345882520E-1,-1.617152739E0,1.873621805E0
1.220904896E1,2.238565217E-1,-9.950280697E-1,-1.557021727E0,1.861319226E0
1.221900196E1,2.873744233E-1,-9.939904082E-1,-1.312040348E0,1.670943107E0
1.222895496E1,2.892722833E-1,-9.147484300E-1,-9.938974375E-1,1.381403366E0
1.223890796E1,2.532476973E-1,-7.445818830E-1,-8.585174382E-1,1.164297543E0
1.224886096E1,2.203632123E-1,-6.612595716E-1,-7.529260790E-1,1.026022342E0
1.225881396E1,1.958637807E-1,-6.194741991E-1,-6.823285514E-1,9.421693882E-1
1.226876696E1,2.051300826E-1,-5.568366323E-1,-6.269571733E-1,8.632616539E-1
1.227871996E1,1.971065333E-1,-5.100169533E-1,-6.026450354E-1,8.137255783E-1
1.228867296E1,1.049660725E-1,-4.862164468E-1,-5.175271171E-1,7.178151757E-1
1.229862596E1,-7.359060768E-2,-4.127819963E-1,-3.849222064E-1,5.691833263E-1
1.230857896E1,-2.069329619E-1,-2.595473778E-1,-3.628618312E-1,4.917873530E-1
1.231853196E1,-2.756329950E-1,-1.596375389E-1,-3.009959507E-1,4.382422322E-1
1.232848496E1,-2.308995295E-1,-7.522033632E-2,-2.742975640E-1,3.663493488E-1
1.233843796E1,-1.443260930E-1,7.731970601E-2,-2.914012545E-1,3.342499801E-1
1.234839096E1,-7.470885113E-2,1.265871026E-1,-1.831692928E-1,2.348546291E-1
1.235834396E1,8.025347337E-2,1.327563536E-1,-2.238787776E-1,2.723721287E-1
1.236829696E1,1.713007607E-1,1.215924110E-1,-1.995181078E-1,2.897173456E-1
1.237824996E1,2.128302444E-1,3.138346821E-3,-9.538679838E-2,2.332492303E-1
1.238820196E1,2.815288887E-1,-1.903982055E-1,2.421975195E-2,3.407294942E-1
1.239815496E1,3.343536582E-1,-3.382939506E-1,2.732304472E-1,5.485344502E-1
1.240810796E1,3.306420284E-1,-4.687231124E-1,5.920370167E-1,8.243381201E-1
1.241806096E1,2.890090124E-1,-6.829294990E-1,9.338061869E-1,1.192439896E0
1.242801396E1,2.092017182E-1,-8.569430754E-1,1.279939719E0,1.554465335E0
1.243796696E1,2.006754910E-1,-9.356392890E-1,1.471731901E0,1.755473246E0
1.244791996E1,2.582955255E-1,-1.039312177E0,1.546592048E0,1.881178711E0
1.245787296E1,2.949150657E-1,-1.098944859E0,1.466040221E0,1.855782484E0
1.246782596E1,2.929733881E-1,-1.024850551E0,1.222742840E0,1.622113470E0
1.247777896E1,2.175180303E-1,-8.831234718E-1,9.259656554E-1,1.297934342E0
1.248773196E1,9.798690900E-2,-7.159959421E-1,6.979061186E-1,1.004651469E0
1.249768496E1,1.060940735E-1,-7.635067619E-1,7.401048893E-1,1.068622373E0
1.250763796E1,2.741491909E-1,-1.176815812E0,9.337138009E-1,1.527047706E0
1.251759096E1,4.204066193E-1,-1.577591793E0,1.144153923E0,1.993646355E0
1.252754396E1,4.144512667E-1,-1.526672046E0,1.389838722E0,2.105741927E0
1.253749696E1,2.999515649E-1,-1.309105484E0,1.675384575E0,2.147240458E0
1.254744996E1,3.066594176E-2,-1.151829417E0,1.753155466E0,2.097905025E0
1.255740296E1,-3.238834877E-1,-9.893404830E-1,1.622264374E0,1.927546836E0
1.256735596E1,-6.506552075E-1,-6.423227790E-1,1.320030568E0,1.605743271E0
1.257730796E1,-1.031509506E0,-1.961349088E-1,9.284559846E-1,1.401610245E0
1.258726096E1,-1.201372509E0,1.240060685E-1,3.953337586E-1,1.270811627E0
1.259721396E1,-1.356441472E0,4.129299308E-1,-6.506313801E-2,1.419393465E0
1.260716696E1,-1.335383895E0,7.158166518E-1,-5.681295061E-1,1.618151650E0
1.261711996E1,-1.325134603E0,9.316634016E-1,-8.796808505E-1,1.843316795E0
1.262707296E1,-1.224975746E0,9.999202888E-1,-1.009869692E0,1.876231051E0
1.263702596E1,-1.030927708E0,8.583235299E-1,-8.616790277E-1,1.594371967E0
1.264697896E1,-6.538610166E-1,5.002852131E-1,-5.921136153E-1,1.014109490E0
1.265693196E1,-2.232875876E-1,1.140864864E-2,-2.029317123E-1,3.019416895E-1
1.266688496E1,7.336633042E-2,-4.897316466E-1,2.987272310E-1,5.783231473E-1
1.267683796E1,1.384956151E-1,-7.164991681E-1,8.142598629E-1,1.093421793E0
1.268679096E1,5.361414358E-2,-6.922209439E-1,1.084294807E0,1.287532345E0
1.269674396E1,-8.629116207E-2,-5.145402863E-1,1.180327138E0,1.290492163E0
1.270669696E1,-2.155230334E-1,-2.849266326E-1,1.148839881E0,1.203106993E0
1.271664996E1,-3.703507988E-1,-1.628069490E-2,1.036561646E0,1.100856404E0
1.272660296E1,-4.864516510E-1,2.742776104E-1,7.710354906E-1,9.520289618E-1
1.273655596E1,-4.456690760E-1,5.153868169E-1,2.533230168E-1,7.269229995E-1
1.274650896E1,-3.426184782E-1,6.015953871E-1,-1.683389997E-1,7.124903159E-1
1.275646196E1,-2.813732797E-1,6.416434056E-1,-4.564523649E-1,8.361973116E-1
1.276641496E1,-2.433134606E-1,6.468172413E-1,-7.011524928E-1,9.844738706E-1
1.277636796E1,-2.270685069E-1,5.709095648E-1,-8.259642345E-1,1.029424477E0
1.278632017E1,-2.886368006E-1,5.112749818E-1,-8.356168181E-1,1.021258428E0
1.279627317E1,-3.978370978E-1,4.683074485E-1,-8.005306005E-1,1.009175636E0
1.280622617E1,-4.856085921E-1,3.257485302E-1,-7.508392078E-1,9.516760613E-1
1.281617917E1,-4.952894982E-1,9.820062473E-2,-7.453515959E-1,9.002799849E-1
1.282613217E1,-3.979838629E-1,-1.065831200E-1,-8.574649394E-1,9.513134283E-1
1.283608517E1,-2.992156928E-1,-2.567978708E-1,-9.536013508E-1,1.031906349E0
1.284603817E1,-2.092795592E-1,-2.954663119E-1,-1.086212693E0,1.144969996E0
1.285599117E1,-1.619523785E-1,-2.375104646E-1,-1.237945016E0,1.270884596E0
1.286594417E1,-1.922822149E-1,-1.111935034E-1,-1.205214642E0,1.225511639E0
1.287589717E1,-2.321799600E-1,2.010616265E-2,-1.140942632E0,1.164500700E0
1.288585017E1,-2.210421106E-1,2.978527799E-2,-1.039813868E0,1.063465870E0
1.289580317E1,-2.184536213E-1,-6.813029498E-3,-9.061190361E-1,9.321052031E-1
1.290575617E1,-2.639068791E-1,-1.451600522E-2,-7.343120527E-1,7.804304876E-1
1.291570917E1,-2.931564059E-1,5.552223623E-3,-6.272308230E-1,6.923799614E-1
1.292566217E1,-2.838969014E-1,6.712618187E-2,-5.992460489E-1,6.664827095E-1
1.293561517E1,-2.729779936E-1,4.362585671E-2,-5.845017099E-1,6.465774890E-1
1.294556817E1,-2.659911557E-1,1.273821777E-1,-6.375160754E-1,7.024274058E-1
1.295552117E1,-3.138583633E-1,2.480107483E-1,-6.244282526E-1,7.415706616E-1
1.296547417E1,-2.872718412E-1,3.110660255E-1,-6.796692377E-1,8.007730363E-1
1.297542717E1,-3.108730674E-1,5.384828071E-1,-6.993544739E-1,9.357897616E-1
1.298537917E1,-3.233289523E-1,6.989154942E-1,-5.598679751E-1,9.520906622E-1
1.299533217E1,-2.480598649E-1,8.150801542E-1,-3.677179438E-1,9.279578872E-1
1.300528517E1,-1.417987072E-1,8.124807744E-1,-2.652297020E-1,8.663594387E-1
1.301523817E1,-8.105008341E-2,7.318409463E-1,-9.839636028E-2,7.428607746E-1
1.302519117E1,-9.991141040E-2,6.828930270E-1,9.625803351E-2,6.968434439E-1
1.303514417E1,-1.807534060E-1,7.502180873E-1,2.424395943E-1,8.088732467E-1
1.304509717E1,-2.362366486E-1,7.332979263E-1,4.394960243E-1,8.869556687E-1
1.305505017E1,-2.357743166E-1,7.419550945E-1,5.062981242E-1,9.286682299E-1
1.306500317E1,-2.342433694E-1,6.646127305E-1,8.156491613E-1,1.077897765E0
1.307495617E1,-2.037685219E-1,6.150472721E-1,1.005227587E0,1.195946178E0
1.308490917E1,-1.266726912E-1,5.947557528E-1,9.609986633E-1,1.137232961E0
1.309486217E1,-1.239700716E-1,3.278913154E-1,8.918003744E-1,9.582218956E-1
1.310481517E1,-2.053995296E-1,-7.452827449E-1,7.954107785E-1,1.109195043E0
1.311476817E1,-3.169657930E-1,5.374451456E-1,9.310153109E-1,1.120760504E0
1.312472117E1,-1.051430239E-1,1.525858699E0,8.482298470E-1,1.748940736E0
1.313467417E1,-2.401399574E-1,1.076071356E0,6.539718944E-1,1.281903273E0
1.314462717E1,-2.594245132E-1,2.911027542E-1,7.235789037E-1,8.219539655E-1
1.315458017E1,-1.449868284E-2,-5.026225644E-1,9.709459466E-1,1.093423836E0
1.316453317E1,4.112001052E-1,-9.510141040E-1,1.361554570E0,1.710948334E0
1.317448617E1,6.834857885E-1,-9.470889413E-1,1.719421710E0,2.078591182E0
1.318443917E1,7.826848253E-1,-7.391520855E-1,1.790429712E0,2.089157700E0
1.319439117E1,4.986719663E-1,-5.455148149E-1,1.920654221E0,2.057953542E0
1.320434417E1,5.700382931E-2,-3.681925184E-1,2.086387117E0,2.119392925E0
1.321429717E1,-1.272035270E-1,-1.098237931E-1,2.050531991E0,2.057406972E0
1.322425017E1,-3.579990674E-1,2.208956013E-1,1.830627565E0,1.878338490E0
1.323420317E1,-4.641019117E-1,4.442573389E-1,1.483977724E0,1.617079174E0
1.324415617E1,-2.177219154E-1,3.325690149E-1,9.951083958E-1,1.071562271E0
1.325410917E1,-4.846605392E-2,-1.491039991E-3,6.786810583E-1,6.804110232E-1
1.326406217E1,5.106453829E-2,-2.804437186E-1,4.310643393E-1,5.167908000E-1
1.327401517E1,2.033703996E-1,-5.967639059E-1,3.398267251E-1,7.162184596E-1
1.328396817E1,3.115331449E-1,-1.043657974E0,5.527454817E-1,1.221393644E0
1.329392117E1,4.120384497E-1,-1.416829469E0,8.885107309E-1,1.722391578E0
1.330387417E1,5.058042537E-1,-1.546442360E0,1.219850222E0,2.033557592E0
1.331382717E1,4.778412605E-1,-1.506910796E0,1.595016934E0,2.245705110E0
1.332378017E1,4.843133242E-1,-1.431370179E0,1.632976474E0,2.224857782E0
1.333373317E1,4.941285701E-1,-1.282161661E0,1.409459054E0,1.968419770E0
1.334368617E1,3.921652255E-1,-9.946137945E-1,1.033282528E0,1.486850008E0
1.335363917E1,1.223639693E-1,-5.980874231E-1,4.692992824E-1,7.700151448E-1
1.336359217E1,-1.227363639E-1,-1.896262634E-1,-1.720192373E-1,2.839242025E-1
1.337354517E1,-1.050741729E-1,8.623890258E-2,-7.480407304E-1,7.602911708E-1
1.338349817E1,5.617959118E-3,2.513453057E-1,-1.160918475E0,1.187828998E0
1.339345117E1,-1.064872988E-2,3.056989759E-1,-1.429578153E0,1.461936714E0
1.340340317E1,9.748647870E-2,3.155085207E-1,-1.542028297E0,1.576990966E0
1.341335617E1,2.726564333E-1,2.762751289E-1,-1.536747676E0,1.585011955E0
1.342330917E1,4.916655767E-1,1.992007136E-1,-1.578433061E0,1.665192749E0
1.343326217E1,6.763146170E-1,1.622324601E-2,-1.477768566E0,1.625258315E0
1.344321517E1,8.277488047E-1,-2.035268126E-1,-1.422408882E0,1.658263633E0
1.345316817E1,8.321798978E-1,-3.271579650E-1,-1.294830238E0,1.573575884E0
1.346312117E1,7.423334093E-1,-3.992003761E-1,-1.164782900E0,1.437754859E0
1.347307417E1,6.606635942E-1,-5.027740804E-1,-1.022627732E0,1.317203719E0
1.348302717E1,6.088927488E-1,-6.635978732E-1,-8.794797063E-1,1.258807797E0
1.349298017E1,5.165205920E-1,-7.194139320E-1,-7.973953235E-1,1.191716925E0
1.350293317E1,3.715442155E-1,-6.219347075E-1,-5.710034126E-1,9.224384975E-1
1.351288617E1,2.170741535E-1,-3.897890998E-1,-3.673776358E-1,5.779472794E-1
1.352283917E1,1.724977222E-1,-2.292410033E-1,-2.135227740E-1,3.576295245E-1
1.353279217E1,2.265426229E-1,-2.894947699E-1,-2.848576355E-1,4.650512383E-1
1.354274517E1,4.348313714E-1,-5.019021875E-1,-2.886273354E-1,7.240786325E-1
1.355269817E1,5.517486776E-1,-6.794031894E-1,-4.558851850E-1,9.868366628E-1
1.356265117E1,5.803690076E-1,-7.326412839E-1,-5.972620887E-1,1.109194951E0
1.357260417E1,4.320210899E-1,-7.292516530E-1,-7.243741250E-1,1.114974470E0
1.358255717E1,2.683755040E-1,-6.425924087E-1,-8.321780705E-1,1.085113246E0
1.359251017E1,1.662859510E-1,-4.917998433E-1,-9.167270547E-1,1.053521047E0
1.360246317E1,1.771007052E-1,-3.530354391E-1,-8.679636151E-1,9.536034386E-1
1.361241517E1,2.547871413E-1,-3.016497060E-1,-7.448352867E-1,8.430235091E-1
1.362236817E1,3.254563887E-1,-3.313758905E-1,-6.144727832E-1,7.702653069E-1
1.363232117E1,3.228822251E-1,-3.473374005E-1,-4.636263138E-1,6.632085343E-1
1.364227417E1,3.010759479E-1,-3.598597245E-1,-2.951978517E-1,5.543352049E-1
1.365222717E1,2.353854402E-1,-3.475469501E-1,-1.841738445E-1,4.583832381E-1
1.366218017E1,1.206125272E-1,-3.232905800E-1,-1.524643940E-1,3.772394097E-1
1.367213317E1,7.961514015E-3,-2.997683460E-1,-3.695440292E-2,3.021424745E-1
1.368208617E1,-4.386186495E-2,-2.913874405E-1,1.894088566E-1,3.502944742E-1
1.369203917E1,3.739217665E-2,-3.215847645E-1,4.272127783E-1,5.360276985E-1
1.370199217E1,1.880696798E-1,-4.504523908E-1,6.689308262E-1,8.280978270E-1
1.371194517E1,2.171913171E-1,-5.840257831E-1,8.401343769E-1,1.045984682E0
1.372189817E1,2.267861960E-1,-5.605615645E-1,1.005600055E0,1.173410720E0
1.373185117E1,3.032364027E-1,-4.028532779E-1,1.009971433E0,1.128842494E0
1.374180417E1,9.349445667E-2,-1.699848265E-1,9.734859771E-1,9.926283303E-1
1.375175717E1,6.470368043E-2,-4.932345673E-3,9.916234553E-1,9.937444195E-1
1.376171017E1,1.552120372E-1,4.938704520E-3,1.074286712E0,1.085452490E0
1.377166317E1,4.245219628E-1,-4.276459108E-1,1.487956755E0,1.605339598E0
1.378161521E1,9.240438218E-1,-1.205744107E0,1.834999529E0,2.382204673E0
1.379156821E1,1.175528620E0,-1.633030122E0,2.080438160E0,2.894283651E0
1.380152121E1,1.028910930E0,-1.549808163E0,2.248756694E0,2.918470441E0
1.381147321E1,8.158701130E-1,-1.261770958E0,2.203564734E0,2.667097210E0
1.382142621E1,4.897807267E-1,-1.057691730E0,2.106875761E0,2.407804482E0
1.383137921E1,1.591933697E-2,-7.728188914E-1,1.926812509E0,2.076080179E0
1.384133221E1,-4.075755624E-1,-3.338444388E-1,1.564568728E0,1.650892260E0
1.385128521E1,-7.251113127E-1,1.178174851E-1,1.134997768E0,1.351993827E0
1.386123821E1,-7.716833621E-1,5.198588406E-1,7.567197526E-1,1.199321979E0
1.387119121E1,-6.533721162E-1,8.750133106E-1,3.683243001E-1,1.152478289E0
1.388114421E1,-5.029443075E-1,1.054068210E0,8.231768668E-2,1.170806974E0
1.389109721E1,-3.283189296E-1,1.016007075E0,-1.186844444E-1,1.074313592E0
1.390105021E1,-1.596328611E-1,7.615257253E-1,-2.958942550E-1,8.324406830E-1
1.391100321E1,-3.367137406E-3,3.707348147E-1,-3.075313836E-1,4.816961619E-1
1.392095621E1,1.502578923E-1,3.287732217E-2,-2.235449016E-2,1.554286838E-1
1.393090921E1,3.197880247E-1,-2.573532832E-1,2.158452880E-1,4.637717990E-1
1.394086221E1,3.945671521E-1,-5.606953561E-1,4.899908245E-1,8.427060745E-1
1.395081521E1,5.675551999E-1,-7.124317718E-1,7.903757411E-1,1.205973361E0
1.396076821E1,6.190844822E-1,-6.700700100E-1,8.910899377E-1,1.275264949E0
1.397072121E1,5.909729697E-1,-5.169122824E-1,7.444967330E-1,1.081999420E0
1.398067421E1,4.923225479E-1,-3.956909869E-1,4.817865962E-1,7.943998820E-1
1.399062721E1,1.888645174E-1,-2.335171086E-1,2.348469847E-1,3.812520848E-1
1.400058021E1,-9.152673156E-2,1.763538513E-2,-1.348280221E-1,1.639107835E-1
1.401053221E1,-2.319714703E-1,1.698236809E-1,-4.396176463E-1,5.252756615E-1
1.402048521E1,-1.235787923E-1,1.979076749E-1,-7.515660167E-1,7.869502164E-1
1.403043821E1,2.265166576E-2,1.390794961E-1,-9.609472078E-1,9.712238364E-1
1.404039121E1,1.478388627E-1,5.225510448E-2,-1.139266235E0,1.150006296E0
1.405034421E1,2.500309613E-1,-1.120878350E-2,-1.318665828E0,1.342207393E0
1.406029721E1,2.869942081E-1,-7.771384489E-2,-1.448973953E0,1.479165519E0
1.407025021E1,2.144603385E-1,-1.783723102E-1,-1.468838698E0,1.495090980E0
1.408020321E1,8.576257378E-2,-2.827640399E-1,-1.468495467E0,1.497928455E0
1.409015621E1,-1.293619718E-2,-3.977499012E-1,-1.393834709E0,1.449533554E0
1.410010921E1,-3.511088546E-3,-5.181815302E-1,-1.357311246E0,1.452865529E0
1.411006221E1,1.437218199E-2,-5.369298597E-1,-1.244368767E0,1.355342710E0
1.412001521E1,-9.515941478E-3,-4.469892677E-1,-1.174322047E0,1.256551722E0
1.412996821E1,7.678947318E-3,-3.336392746E-1,-1.132006332E0,1.180174762E0
1.413992121E1,4.111524504E-3,-2.794196153E-1,-1.086106859E0,1.121481313E0
1.414987421E1,-6.277053611E-2,-1.815271754E-1,-9.226707494E-1,9.424508303E-1
1.415982721E1,-1.513089293E-1,-7.291649681E-2,-7.729831982E-1,7.910210062E-1
1.416978021E1,-1.862251939E-1,-7.876148321E-2,-6.630403411E-1,6.931851759E-1
1.417973321E1,-1.054001552E-1,-1.752978807E-1,-4.850855953E-1,5.264471241E-1
1.418968621E1,6.044145308E-2,-1.889638470E-1,-3.316628426E-1,3.864721800E-1
1.419963921E1,1.872130810E-1,-1.078560954E-1,-2.627434659E-1,3.401702572E-1
1.420959221E1,2.352633796E-1,-2.150602262E-2,-2.856335610E-1,3.706722244E-1
1.421954421E1,1.907082907E-1,8.117130350E-2,-3.529010993E-1,4.092647292E-1
1.422949721E1,9.214778809E-2,2.326515745E-1,-4.219292343E-1,4.905530030E-1
1.423945021E1,3.488508244E-2,4.069660998E-1,-4.956070751E-1,6.422341849E-1
1.424940321E1,1.160396392E-2,5.656088445E-1,-5.060490328E-1,7.590346768E-1
1.425935621E1,4.638775248E-2,7.486926949E-1,-3.507323670E-1,8.280735283E-1
1.426930921E1,2.352498579E-1,9.253690933E-1,-3.937976950E-1,1.032824806E0
1.427926221E1,4.046554994E-1,9.576990064E-1,-4.057423872E-1,1.116046749E0
1.428921521E1,4.679557385E-1,9.381167543E-1,-3.165121222E-1,1.095091568E0
1.429916821E1,4.845639140E-1,9.684787870E-1,-2.685936052E-1,1.115749019E0
1.430912121E1,4.833569390E-1,9.233580896E-1,-1.673490661E-1,1.055570842E0
1.431907421E1,4.107981091E-1,7.498068818E-1,7.320713997E-3,8.549965142E-1
1.432902721E1,3.785749442E-1,5.942650983E-1,2.348925930E-1,7.427277601E-1
1.433898021E1,3.338100864E-1,5.045441788E-1,5.526337999E-1,8.193888692E-1
1.434893321E1,3.202078548E-1,4.996384379E-1,8.355209237E-1,1.024825279E0
1.435888621E1,2.974190262E-1,5.353519886E-1,1.015089501E0,1.185523734E0
1.436883921E1,2.052666334E-1,6.610903678E-1,1.195467333E0,1.381418477E0
1.437879221E1,1.225420353E-1,8.209427188E-1,1.265825710E0,1.513696874E0
1.438874521E1,6.281411614E-2,8.860085611E-1,1.213080901E0,1.503503261E0
1.439869821E1,1.676854455E-2,7.561528650E-1,1.218645111E0,1.434274816E0
1.440865121E1,2.227613747E-2,2.999380432E-1,1.364954141E0,1.397697701E0
1.441860321E1,8.808614764E-2,-4.712511561E-1,1.652395077E0,1.720536635E0
1.442855621E1,9.708356900E-2,-1.114237156E0,1.969002509E0,2.264491231E0
1.443850921E1,2.726768620E-2,-1.266131811E0,2.214900731E0,2.551395410E0
1.444846221E1,-1.550123913E-1,-1.012247462E0,2.406010543E0,2.614872941E0
1.445841521E1,-1.246839800E-1,-5.536903187E-1,2.513927924E0,2.577198609E0
1.446836821E1,9.367080504E-2,-1.467512988E-1,2.252907048E0,2.259623935E0
1.447832121E1,1.014396168E-1,1.333681916E-1,1.837233750E0,1.844859052E0
1.448827421E1,2.167836931E-2,4.551528943E-1,1.405164859E0,1.477200863E0
1.449822721E1,9.304491542E-3,6.972149047E-1,8.350291729E-1,1.087873576E0
1.450818021E1,3.946241990E-2,5.768750404E-1,4.920256555E-1,7.592307558E-1
1.451813321E1,4.671377130E-2,2.106019436E-1,4.519330519E-1,5.007782329E-1
1.452808621E1,7.650248453E-2,-1.829735573E-1,4.435212475E-1,4.858426183E-1
1.453803921E1,1.129846152E-1,-6.075059719E-1,5.925486481E-1,8.561208616E-1
1.454799221E1,2.267460329E-1,-1.019674741E0,9.307954556E-1,1.399117766E0
1.455794521E1,2.984559933E-1,-1.311950593E0,1.168766023E0,1.782218942E0
1.456789821E1,2.397808288E-1,-1.519620012E0,1.421326563E0,2.094494933E0
1.457785121E1,1.954541467E-1,-1.677625081E0,1.601954071E0,2.327849884E0
1.458780421E1,1.007457898E-1,-1.669870943E0,1.502540880E0,2.248610187E0
1.459775721E1,-8.901072035E-2,-1.448111196E0,1.280037952E0,1.934798724E0
1.460771021E1,-4.489923776E-1,-1.102469415E0,9.576575643E-1,1.527789572E0
1.461766221E1,-7.835374224E-1,-6.914825868E-1,5.301594418E-1,1.171814018E0
1.462761521E1,-8.296506847E-1,-3.056056032E-1,-1.761590660E-2,8.843219795E-1
1.463756821E1,-7.237199678E-1,-4.174414963E-2,-5.466310483E-1,9.079199682E-1
1.464752121E1,-4.428795521E-1,1.438722029E-1,-1.069104325E0,1.166115589E0
1.465747421E1,-2.296658400E-1,2.633680216E-1,-1.535755404E0,1.575009134E0
1.466742721E1,-5.672087889E-2,2.170526650E-1,-1.824354672E0,1.838096594E0
1.467738021E1,1.774970185E-1,9.998124808E-2,-2.007861350E0,2.018169626E0
1.468733321E1,3.595842110E-1,-1.334341921E-2,-2.105123935E0,2.135655785E0
1.469728621E1,4.477684457E-1,-1.739447254E-1,-2.038303708E0,2.094143108E0
1.470723921E1,5.006390793E-1,-3.562579127E-1,-2.045937833E0,2.136216470E0
1.471719221E1,5.191524969E-1,-5.383536568E-1,-1.925200431E0,2.065366959E0
1.472714521E1,5.012717480E-1,-7.000701731E-1,-1.644209560E0,1.856016349E0
1.473709821E1,4.681104704E-1,-6.953128054E-1,-1.398952777E0,1.630845235E0
1.474705121E1,4.477266381E-1,-6.785989780E-1,-1.257127976E0,1.497106030E0
1.475700421E1,3.786129511E-1,-7.456847410E-1,-1.004480313E0,1.307047895E0
1.476695721E1,2.865257365E-1,-7.384625526E-1,-7.199419355E-1,1.070392605E0
1.477691021E1,1.504718821E-1,-6.404442148E-1,-5.822084320E-1,8.785085303E-1
1.478686329E1,8.993514687E-2,-5.216614641E-1,-4.640590078E-1,7.039671700E-1
1.479681529E1,2.342972003E-2,-4.345212863E-1,-3.834756052E-1,5.800096894E-1
1.480676829E1,-4.815595049E-2,-3.266810880E-1,-3.598171860E-1,4.883727431E-1
1.481672129E1,-1.325017805E-1,-1.647361647E-1,-3.151900667E-1,3.795253667E-1
1.482667429E1,-1.477590299E-1,-3.859673962E-3,-3.142124122E-1,3.472420885E-1
1.483662729E1,-1.520006732E-1,9.672084063E-2,-2.900914782E-1,3.414852726E-1
1.484658029E1,-1.590395880E-1,1.481771424E-1,-3.211027712E-1,3.877590047E-1
1.485653329E1,-1.960689449E-1,1.510237131E-1,-2.978811389E-1,3.872781507E-1
1.486648629E1,-2.582826616E-1,1.488568812E-1,-3.044960940E-1,4.261292945E-1
1.487643929E1,-2.232767702E-1,1.120542866E-1,-3.348507446E-1,4.177723069E-1
1.488639229E1,-2.025222793E-1,8.431049086E-2,-2.395960933E-1,3.248535368E-1
1.489634529E1,-1.860199201E-1,6.637196414E-2,-1.031016147E-1,2.227971976E-1
1.490629829E1,-1.983256595E-1,1.239624336E-2,-1.791236043E-2,1.995183869E-1
1.491625129E1,-2.385979370E-1,-3.427286983E-2,1.131009382E-1,2.662619526E-1
1.492620429E1,-2.711669100E-1,-3.574322529E-2,3.034102660E-1,4.084934036E-1
1.493615729E1,-3.238120785E-1,-1.815253481E-2,4.999427855E-1,5.959249663E-1
1.494611029E1,-3.665590987E-1,-1.091786259E-1,5.597580475E-1,6.779488306E-1
1.495606329E1,-5.094290158E-1,-1.836163124E-1,7.990606105E-1,9.652620016E-1
1.496601629E1,-5.038953571E-1,-3.039286217E-1,1.042298350E0,1.196941514E0
1.497596829E1,-4.148668941E-1,-5.330510361E-1,1.166480346E0,1.347937070E0
1.498592129E1,-3.112006942E-1,-6.724270957E-1,1.052982382E0,1.287546492E0
1.499587429E1,-1.649997463E-1,-7.411117067E-1,1.072675804E0,1.314193616E0
1.500582729E1,-6.999495378E-2,-6.393493968E-1,9.687187421E-1,1.162791016E0
1.501578029E1,-6.511729784E-2,-5.815726934E-1,1.084899409E0,1.232669375E0
1.502573329E1,-1.049110539E-1,-6.284770109E-1,1.152459308E0,1.316872104E0
1.503568629E1,7.204526167E-2,-9.007078034E-1,1.379651118E0,1.649212622E0
1.504563929E1,3.104983705E-1,-1.362630604E0,1.845633860E0,2.315067115E0
1.505559229E1,2.433600374E-1,-1.729795840E0,2.110722644E0,2.739811642E0
1.506554529E1,-2.149951212E-1,-1.729250879E0,2.282327898E0,2.871506946E0
1.507549829E1,-6.869428816E-1,-1.575197504E0,2.384061264E0,2.938857910E0
1.508545129E1,-1.250092753E0,-1.463589653E0,2.326499519E0,3.019507671E0
1.509540429E1,-1.464318801E0,-1.283727545E0,2.180931916E0,2.923807446E0
1.510535729E1,-1.268063001E0,-8.046332263E-1,2.215342780E0,2.676408421E0
1.511531029E1,-1.021896830E0,-1.936555432E-1,2.064766452E0,2.311933412E0
1.512526329E1,-7.792515595E-1,2.634634774E-1,1.674487027E0,1.865623971E0
1.513521629E1,-5.686146423E-1,4.809644777E-1,1.168318126E0,1.385502322E0
1.514516929E1,-5.116321736E-1,6.840344035E-1,5.512643820E-1,1.016642988E0
1.515512229E1,-4.002260874E-1,8.513057747E-1,-1.695218915E-1,9.558452358E-1
1.516507429E1,-1.370765324E-1,1.146532058E0,-4.300913626E-1,1.232194918E0
1.517502729E1,1.819053441E-1,1.310480311E0,-5.024015397E-1,1.415222776E0
1.518498029E1,5.081771269E-2,1.159368816E0,-2.620271820E-1,1.189696069E0
1.519493329E1,-4.935732673E-1,6.920523249E-1,-4.652354676E-1,9.690175596E-1
1.520488629E1,-1.177301057E-1,-1.022267251E-1,-6.444830328E-1,6.630754563E-1
1.521483929E1,5.887422569E-1,-5.536200790E-1,-3.871792316E-2,8.090807837E-1
1.522479229E1,1.062353057E0,-3.233118492E-1,3.932468873E-1,1.178035519E0
1.523474529E1,1.154586452E0,9.379138559E-2,6.418664038E-2,1.160166636E0
1.524469829E1,4.836674262E-1,1.420259446E-2,4.784074903E-1,6.804481020E-1
1.525465129E1,-2.328177086E-1,-2.789575025E-1,6.007289028E-1,7.020659430E-1
1.526460429E1,-4.178054854E-3,-6.162541375E-2,5.530740952E-1,5.565124460E-1
1.527455729E1,1.781128400E-1,6.701830074E-2,4.312339085E-1,4.713579534E-1
1.528451029E1,-1.633419693E-3,1.565431193E-2,-4.145371842E-1,4.148358744E-1
1.529446329E1,2.171965796E-1,2.018590406E-2,-8.963033152E-1,9.224648815E-1
1.530441629E1,2.976655228E-1,3.392525285E-2,-9.188332218E-1,9.664420188E-1
1.531436929E1,-8.109766513E-2,1.694961637E-2,-2.379062480E-1,2.519196372E-1
1.532432229E1,-4.431901489E-1,1.059807837E-3,1.539905173E-1,4.691819590E-1
1.533427529E1,-7.063337106E-1,9.972455531E-2,-1.041973829E-3,7.133395989E-1
1.534422729E1,-8.677830823E-1,3.220596680E-1,-6.459547770E-1,1.128728259E0
1.535418029E1,-7.346604006E-1,4.546122462E-1,-2.005031297E0,2.183242703E0
1.536413329E1,-1.624086805E-1,1.916610579E-1,-3.199761881E0,3.209608487E0
1.537408629E1,-5.192671023E-2,1.110126051E-1,-4.624815459E0,4.626439042E0
1.538403929E1,2.689153482E-1,1.823939520E-1,-5.509574617E0,5.519148075E0
1.539399229E1,6.494142821E-1,-9.506754041E-1,-1.812536280E0,2.147279768E0
1.540394529E1,2.646123091E-1,-6.201910678E-1,3.537452618E0,3.601142550E0
1.541389829E1,-1.753151300E-1,5.556038200E-1,2.368898265E0,2.439489698E0
1.542385129E1,2.710395686E-1,8.045434716E-1,-2.476672390E0,2.618140327E0
1.543380429E1,5.872588914E-1,-5.372291641E-1,-1.658434081E-1,8.130142780E-1
1.544375729E1,3.495319337E-1,-1.059940057E0,-1.036073989E-1,1.120883576E0
1.545371029E1,4.948205150E-1,-5.532244418E-1,-2.148691539E0,2.273275160E0
1.546366329E1,7.973096618E-1,-1.316998348E-1,-1.431503642E0,1.643852250E0
1.547361629E1,8.490767431E-1,7.276473963E-1,-3.944245166E-1,1.185737217E0
1.548356929E1,-4.489212973E-1,1.056440864E0,-2.467934310E-1,1.174097367E0
1.549352229E1,-1.362090614E0,1.091479061E0,1.033573135E0,2.028519363E0
1.550347529E1,-1.179199795E0,1.476410843E0,1.333460453E0,2.312664678E0
1.551342829E1,-6.602349932E-1,1.513919269E0,7.837531847E-1,1.828149571E0
1.552338029E1,3.982724230E-1,1.468200182E0,3.124927461E-1,1.553024280E0
1.553333329E1,1.245788763E0,1.355045157E0,-2.152278221E-1,1.853229623E0
1.554328629E1,1.062632554E0,8.553231774E-1,7.568811357E-1,1.560011133E0
1.555323929E1,3.813919500E-2,-1.080175882E-1,4.009816427E0,4.011452377E0
1.556319229E1,-1.013740329E0,-3.734267997E-1,4.418257304E0,4.548418916E0
1.557314529E1,-1.378714102E0,1.087802990E0,1.674821488E0,2.426766353E0
1.558309829E1,-7.611976965E-1,2.868695747E0,9.753009528E-1,3.124107740E0
1.559305129E1,-1.335558142E-1,1.148400756E0,-1.884762257E-1,1.171402893E0
1.560300429E1,3.812953247E-1,2.470372599E-1,-1.229170099E0,1.310447506E0
1.561295729E1,5.222844483E-1,6.142966358E-1,-1.344426906E0,1.567681443E0
1.562291029E1,3.012147097E-1,5.453912924E-1,-1.741737608E0,1.849819413E0
1.563286329E1,1.839227796E-1,-5.775092440E-1,-2.157860557E0,2.241362688E0
1.564281629E1,1.060638726E0,-1.963951976E0,-1.566696530E0,2.727012998E0
1.565276929E1,1.629190986E0,-2.039704409E0,4.874186343E-1,2.655604314E0
1.566272229E1,1.801772141E0,-2.979642425E-1,2.013293413E0,2.718182463E0
1.567267529E1,2.001811236E0,5.629692652E-1,2.225625109E0,3.045913614E0
1.568262829E1,1.852025305E0,4.413715187E-1,-3.848403454E-2,1.904281378E0
1.569258129E1,1.199629235E0,5.309412877E-1,-8.757462591E-1,1.577320660E0
1.570253329E1,9.721677223E-1,1.529273034E0,1.190955037E-1,1.816031341E0
1.571248629E1,-4.701773880E-1,4.954443032E-1,-3.206677383E-1,7.545592304E-1
1.572243929E1,-2.183512877E0,-1.866609284E0,-6.836658096E-1,2.952855845E0
1.573239229E1,-1.667007853E0,-2.063709422E0,-2.143121481E-2,2.652974003E0
1.574234529E1,-7.116225171E-1,-1.000595788E0,6.124595869E-1,1.372117081E0
1.575229829E1,-1.711399440E-1,-1.026569047E0,8.834879726E-1,1.365168080E0
1.576225129E1,3.125493179E-1,-1.267185480E0,1.200108853E0,1.773050302E0
1.577220429E1,3.336909494E-1,-9.515489781E-1,5.967832017E-1,1.171727484E0
1.578215742E1,1.738040999E-1,-8.377973910E-1,3.200514418E-1,9.135344869E-1
1.579211042E1,2.089832881E-1,-6.579378415E-1,-1.080138606E-1,6.987297132E-1
1.580206342E1,6.050364004E-1,-5.596035348E-1,-8.894188035E-1,1.212555553E0
1.581201642E1,8.243391471E-1,-6.943908457E-1,-9.886589170E-1,1.462586794E0
1.582196942E1,9.994115080E-1,-9.026073445E-1,-1.849100089E-1,1.359306843E0
1.583192242E1,1.241814703E0,-7.151916575E-1,-4.034742522E-1,1.488755969E0
1.584187542E1,1.289679280E0,-6.278972594E-1,-1.226540022E0,1.887307086E0
1.585182842E1,1.070767127E0,-7.194513541E-1,-1.132171224E0,1.716381127E0
1.586178142E1,8.061367647E-1,-3.623545487E-1,-7.674306822E-1,1.170515764E0
1.587173342E1,9.570064768E-1,-4.859920964E-1,-9.661985922E-1,1.444156998E0
1.588168642E1,1.500899128E0,-8.294379191E-1,-1.139482582E0,2.058904080E0
1.589163942E1,1.722480242E0,-1.001297308E0,-1.097791350E0,2.274792371E0
1.590159242E1,1.309596504E0,-1.606283349E0,-3.860577357E-1,2.108134194E0
1.591154542E1,2.977986932E-3,-2.014120502E0,7.221434122E-1,2.139668519E0
1.592149842E1,-1.158923405E0,-2.263640489E0,1.368534976E0,2.887916153E0
1.593145142E1,-7.103681432E-1,-1.340772981E0,1.971982834E0,2.488174307E0
1.594140442E1,-7.657833754E-1,-9.392356190E-1,1.292369730E0,1.771667927E0
1.595135742E1,-9.802419962E-1,-6.972913570E-1,3.571724904E-1,1.254855289E0
1.596131042E1,-6.114249220E-1,-8.663125075E-2,-2.840074503E-1,6.797099681E-1
1.597126342E1,-1.320894787E-1,1.430933538E-1,-9.472904509E-1,9.671000655E-1
1.598121642E1,3.337494215E-1,-1.201525341E-1,-1.385499503E0,1.430186764E0
1.599116942E1,3.669747627E-1,-4.214192109E-1,-1.499665219E0,1.600393826E0
1.600112242E1,2.028080437E-1,-6.974789795E-1,-9.982465965E-1,1.234546191E0
1.601107542E1,5.240186960E-2,-3.236759115E-1,-4.203446388E-2,3.305736647E-1
1.602102842E1,-5.190631807E-2,1.433469037E-1,1.867015958E-3,1.524666731E-1
1.603098142E1,-2.436698484E-1,4.090164625E-1,-9.175801635E-1,1.033742143E0
1.604093342E1,-7.847021878E-2,7.391172945E-1,-1.799659542E0,1.947107192E0
1.605088642E1,4.931091446E-1,8.495951718E-1,-1.553065501E0,1.837656397E0
1.606083942E1,6.050283605E-1,6.213777602E-2,-9.505912042E-1,1.128514093E0
1.607079242E1,4.848063907E-1,-1.401392235E0,-5.963440758E-1,1.598300250E0
1.608074542E1,7.408451468E-1,-1.403826723E0,1.024478960E-1,1.590621442E0
1.609069842E1,5.942077956E-1,-7.231417512E-1,4.140524501E-1,1.023453139E0
1.610065142E1,9.855014205E-2,-9.442500450E-2,2.781239820E-1,3.098082654E-1
1.611060442E1,-4.105221936E-1,5.712788165E-1,1.243913269E-1,7.143956605E-1
1.612055742E1,-7.852451017E-1,9.168482383E-1,-1.077261776E-1,1.211951109E0
1.613051042E1,-7.329759640E-1,7.746414685E-1,-1.777383989E-1,1.081163312E0
