"Time (s)","Linear Acceleration x (m/s^2)","Linear Acceleration y (m/s^2)","Linear Acceleration z (m/s^2)","Absolute acceleration (m/s^2)"
1.840666402E-3,2.797907308E-2,-2.154698968E-3,2.012845516E-1,2.032312525E-1
1.179366652E-2,-1.026763760E-1,1.529339254E-2,3.565211105E-1,3.713268483E-1
2.174666664E-2,-8.452588767E-2,-7.238852978E-4,3.919651777E-1,4.009761217E-1
3.169966629E-2,-8.475539088E-4,-6.371827841E-2,3.287135071E-1,3.348332526E-1
4.165366665E-2,1.717619598E-2,3.408926725E-3,2.548239970E-1,2.554249634E-1
5.160666630E-2,-2.848441869E-2,6.542595774E-2,1.050575083E-1,1.269999926E-1
6.155966641E-2,-1.437763086E-1,1.119782728E-1,1.408173251E-1,2.303047536E-1
7.151266653E-2,-1.324736407E-1,8.589676738E-2,1.956472510E-1,2.514067759E-1
8.146666642E-2,-1.505658031E-5,1.079293683E-1,5.010946870E-2,1.189945697E-1
9.141966654E-2,2.422179848E-2,1.243530276E-1,-1.451045036E-1,1.926283675E-1
1.013726667E-1,-2.280516431E-2,7.857488394E-2,-1.490765172E-1,1.700526268E-1
1.113256663E-1,-2.252902955E-2,1.572433233E-2,-5.005918264E-2,5.710283326E-2
1.212796667E-1,5.428555012E-2,3.631998003E-3,4.371729255E-2,6.979479944E-2
1.312326663E-1,8.896143928E-2,-1.187130958E-2,1.171296698E-1,1.475615980E-1
1.411856664E-1,9.062643394E-2,2.973601520E-3,2.323163098E-1,2.493849647E-1
1.511386666E-1,9.383319318E-3,-2.695040166E-2,2.533212626E-1,2.549235825E-1
1.610916667E-1,-6.514967680E-2,-2.994505316E-2,2.184788740E-1,2.299439170E-1
1.710456666E-1,-5.196449786E-2,-2.485768318E-2,1.576766020E-1,1.678693667E-1
1.809986667E-1,-3.602206439E-2,-3.890912712E-2,5.730037451E-2,7.806947044E-2
1.909516663E-1,-4.758200973E-2,-2.690654755E-2,1.368014574E-2,5.634852561E-2
2.009046664E-1,-6.359957993E-2,-1.684173524E-2,2.384611487E-2,6.997991003E-2
2.108586663E-1,-8.556274518E-2,-1.984340340E-2,5.100584686E-2,1.015693873E-1
2.208116665E-1,-8.371458650E-3,2.375665247E-2,8.583771050E-2,8.945709810E-2
2.307646666E-1,5.431610182E-2,5.296788007E-2,7.610618949E-2,1.074615620E-1
2.407176667E-1,3.121243715E-2,6.319846094E-2,8.338071048E-2,1.091815212E-1
2.506716666E-1,-5.088656366E-2,4.029579431E-2,1.081126785E-1,1.261013269E-1
2.606246667E-1,-5.346796319E-2,5.625196874E-2,6.159924746E-2,9.908367354E-2
2.705776663E-1,-4.782773897E-2,1.542577350E-1,-2.828765988E-2,1.639607670E-1
2.805306665E-1,-9.365646109E-2,2.711924002E-1,4.954579711E-2,2.911556914E-1
2.904836666E-1,-1.822192664E-1,3.097983491E-1,1.849474311E-1,4.042083998E-1
3.004376665E-1,-2.996806195E-1,3.092434484E-1,3.461247611E-1,5.524874065E-1
3.103906666E-1,-3.368516618E-1,3.306965902E-1,4.114486849E-1,6.261942967E-1
3.203436662E-1,-2.710549906E-1,2.880823749E-1,2.639550090E-1,4.755360233E-1
3.302966664E-1,-2.184794587E-1,2.830081612E-1,1.292228812E-1,3.801650249E-1
3.402506663E-1,-2.597704491E-1,3.243985543E-1,1.286603791E-1,4.350501136E-1
3.502036664E-1,-3.634699416E-1,1.544205800E-1,8.620023787E-2,4.042110773E-1
3.601566665E-1,-5.513194920E-1,1.967579296E-1,-3.303676844E-3,5.853868630E-1
3.701096666E-1,-4.717431262E-1,4.037552109E-1,1.202398038E-1,6.324693336E-1
3.800636665E-1,-4.141239323E-1,4.012730679E-1,1.063228458E-1,5.863644377E-1
3.900166666E-1,-4.843558627E-1,3.217032802E-1,-8.788365126E-4,5.814588331E-1
3.999696663E-1,-5.284757361E-1,3.262395501E-1,-1.732296109E-1,6.447692190E-1
4.099226664E-1,-4.612081978E-1,3.911363348E-1,-3.889573699E-1,7.190191025E-1
4.198756665E-1,-5.484998184E-1,1.309024939E-1,-5.961458552E-1,8.205957558E-1
4.298296664E-1,-6.569649379E-1,-2.018561170E-1,-8.121946263E-1,1.063959084E0
4.397826665E-1,-6.327985418E-1,3.270172298E-2,-6.781115395E-1,9.280833245E-1
4.497356666E-1,-6.816724938E-1,5.236959296E-1,-2.669137001E-1,9.000987384E-1
4.596896665E-1,-9.229137012E-1,8.582408649E-1,1.426399022E-1,1.268342708E0
4.696426666E-1,-1.211208769E0,7.286665660E-1,1.225482845E-1,1.418802216E0
4.795956663E-1,-1.268347175E0,2.049048552E-1,-1.743043292E-1,1.296561821E0
4.895486664E-1,-1.140114374E0,-1.532195619E-1,-5.328006291E-1,1.267759256E0
4.995026663E-1,-8.550582254E-1,-2.287774287E-1,-7.886537361E-1,1.185511871E0
5.094556664E-1,-4.236733125E-1,-4.842124598E-1,-9.851546806E-1,1.176643755E0
5.194086665E-1,-5.048537157E-2,-1.138883096E0,-1.248151916E0,1.690410212E0
5.293616666E-1,-7.790603556E-2,-1.246565420E0,-1.648863943E0,2.068513234E0
5.393146663E-1,-1.600458938E-1,-1.195463825E0,-2.093420148E0,2.416020770E0
5.492686667E-1,-1.944229902E-1,-1.170767525E0,-2.610881776E0,2.867961043E0
5.592216663E-1,-1.219300511E-1,-8.929636779E-1,-3.257483840E0,3.379859766E0
5.691746664E-1,4.755954912E-1,-3.339409178E-1,-3.829200613E0,3.873045951E0
5.791276665E-1,1.305069005E0,1.637979205E0,-4.356451650E0,4.833720302E0
5.890816664E-1,1.706389874E0,1.870457629E0,-4.464198877E0,5.132197362E0
5.990346665E-1,1.198442250E0,-2.038665359E-1,-2.697508276E0,2.958779527E0
6.089876667E-1,9.419999633E-1,-1.963331294E-1,-3.551081893E0,3.679143004E0
6.189406663E-1,6.187908058E-1,4.230805510E-1,-3.926930975E0,3.997835177E0
6.288946667E-1,6.537684113E-2,-1.246275544E-1,-2.997017280E0,3.000319772E0
6.388476663E-1,-3.444591452E-1,-6.211957656E-1,-2.363509471E0,2.467937054E0
6.488006664E-1,-9.244864561E-2,-8.217947312E-1,-1.443282273E0,1.663417281E0
6.587536666E-1,9.402081572E-1,-1.276301289E0,3.996431565E-1,1.634824459E0
6.687066667E-1,2.271233391E0,-3.886329372E0,4.579086140E0,6.421065876E0
6.786606666E-1,3.604739453E0,-4.248306811E0,8.627667852E0,1.027029259E1
6.886173333E-1,3.812916702E0,-1.610198353E0,1.002192999E1,1.084297714E1
6.985703330E-1,2.965870624E0,2.157781474E0,1.013144600E1,1.077490638E1
7.085233331E-1,1.735382854E0,5.108424048E0,1.124906643E1,1.247593866E1
7.184773330E-1,1.271133958E0,6.590949324E0,1.442000329E1,1.590575020E1
7.284303331E-1,8.244201310E-1,6.590751103E0,1.763391368E1,1.884336967E1
7.383833332E-1,4.279523049E-1,6.378003670E0,1.942518949E1,2.044994036E1
7.483363333E-1,2.398359022E-1,6.994750435E0,1.976041504E1,2.096325493E1
7.582903332E-1,6.819107679E-1,6.466073263E0,1.775970600E1,1.891248960E1
7.682433333E-1,9.364397728E-1,5.158901306E0,1.550259071E1,1.636525285E1
7.781963330E-1,1.869733744E0,3.542060517E0,1.303234909E1,1.363393633E1
7.881493331E-1,2.962619572E0,2.432828212E0,1.016739585E1,1.086608054E1
7.981023332E-1,3.171961002E0,2.133829086E0,7.526138377E0,8.441405217E0
8.080563331E-1,2.420385630E0,2.491879536E0,5.040247267E0,6.121423261E0
8.180093332E-1,1.260246881E0,2.156308122E0,2.728200896E0,3.698779129E0
8.279623333E-1,-5.615212753E-1,1.338360712E0,7.233409220E-1,1.621646579E0
8.379153330E-1,-2.469508673E0,3.552066565E-1,-3.360517627E-1,2.517454199E0
8.478693333E-1,-3.332252771E0,-6.447672075E-1,-1.758785166E0,3.822689962E0
8.578223330E-1,-3.531435249E0,-1.546910429E0,-3.186103370E0,5.001521916E0
8.677753331E-1,-3.226835659E0,-3.280961873E0,-3.980171628E0,6.084319631E0
8.777283332E-1,-2.445571927E0,-4.663377846E0,-4.586315053E0,6.982993681E0
8.876813333E-1,-1.438881512E0,-5.333796204E0,-5.385891387E0,7.715412367E0
8.976353332E-1,-4.035444188E-1,-5.288972034E0,-6.350166830E0,8.274097658E0
9.075883334E-1,-1.662359025E-1,-5.099601184E0,-7.729675861E0,9.261827872E0
9.175413330E-1,-5.282479870E-1,-4.708840241E0,-1.002697848E1,1.109019927E1
9.274943331E-1,-2.281112847E-1,-3.861951452E0,-1.152037139E1,1.215259893E1
9.374483330E-1,1.411382642E-2,-2.906789187E0,-1.243406082E1,1.276931834E1
9.474013331E-1,-1.459048413E-1,-2.513858927E0,-1.306918187E1,1.330955633E1
9.573543333E-1,-3.244517639E-1,-2.614818707E0,-1.324085612E1,1.350047468E1
9.673073329E-1,2.599455732E-1,-2.916464868E0,-1.298164671E1,1.330776053E1
9.772613333E-1,1.067042158E0,-3.164940250E0,-1.220253563E1,1.265137548E1
9.872143329E-1,3.053594646E0,-2.427053210E0,-9.649312082E0,1.040789370E1
9.971673330E-1,7.054411331E0,-4.708882633E-1,-8.401315117E0,1.098037115E1
1.007120333E0,8.047275565E0,2.087830210E-1,-8.598814182E0,1.177887260E1
1.017073333E0,7.028986468E0,-6.519148439E-2,-8.342774549E0,1.090929823E1
1.027027333E0,4.218650318E0,-1.347078326E0,-8.942474926E0,9.978952266E0
1.036980333E0,2.751437731E0,-1.919038343E0,-8.589686678E0,9.221487677E0
1.046933333E0,2.808027084E0,-1.641523056E0,-8.243666582E0,8.862147187E0
1.056886333E0,3.055299402E0,-1.136678550E0,-8.182213515E0,8.807696099E0
1.066840333E0,2.820809682E0,-1.004925579E0,-7.960276013E0,8.504871362E0
1.076793333E0,2.461816369E0,-1.249012626E0,-7.935243498E0,8.401705883E0
1.086746333E0,5.818472202E-1,-1.886511160E0,-6.994432347E0,7.267706268E0
1.096699333E0,1.392134339E-1,-1.690602246E0,-6.772239906E0,6.981457561E0
1.106652333E0,9.357798415E-1,-1.777702955E0,-7.133693728E0,7.411173855E0
1.116606333E0,9.354580984E-1,-1.224873565E0,-7.822682843E0,7.973064904E0
1.126559333E0,1.237268639E-1,-6.708612844E-1,-7.731854534E0,7.761890087E0
1.136512333E0,-1.205444583E0,-1.341557677E0,-6.456626501E0,6.703797388E0
1.146465333E0,-2.631325396E0,-2.075015744E0,-4.852000837E0,5.896734334E0
1.156419333E0,-3.158792780E0,-2.323505306E0,-3.388821074E0,5.182736440E0
1.166372333E0,-2.881933258E0,-1.404504562E0,-1.081802139E0,3.383558517E0
1.176325333E0,-1.653737597E0,1.316981245E0,2.174515767E0,3.032788562E0
1.186278333E0,-3.227383836E-1,5.113276067E0,5.763155496E0,7.711271845E0
1.196231333E0,5.108423975E-1,9.841956203E0,1.144409680E1,1.510272867E1
1.206185333E0,9.072074953E-1,1.317103335E1,2.206861043E1,2.571619551E1
1.216138333E0,1.217443070E0,1.310000488E1,3.312768095E1,3.564457238E1
1.226091333E0,1.139477904E0,1.161219606E1,4.038633026E1,4.203804442E1
1.236044333E0,1.326884528E0,1.035190474E1,4.005701039E1,4.139428265E1
1.245998333E0,3.382925912E0,8.173129281E0,3.487668606E1,3.598093190E1
1.255951333E0,5.934433891E0,4.797695991E0,2.836197566E1,2.937068361E1
1.265904333E0,5.790939710E0,3.069969481E0,2.150239647E1,2.247916256E1
1.275857333E0,3.220682634E0,3.990087629E0,1.661455104E1,1.738783776E1
1.285810333E0,6.192489351E-1,5.127266700E0,1.530273873E1,1.615073205E1
1.295764333E0,-4.797849481E-1,5.448474721E0,1.324724128E1,1.433197376E1
1.305717333E0,1.175923307E-1,5.766833979E0,9.351750201E0,1.098751264E1
1.315670333E0,1.084638477E0,5.056716535E0,4.883210351E0,7.112845146E0
1.325623333E0,1.178313210E0,2.627416825E0,3.635360152E-1,2.902395498E0
1.335577333E0,4.437789635E-1,-2.271736836E-1,-2.724518904E0,2.769756471E0
1.345530333E0,-1.274668162E-1,-2.779443555E0,-4.099413312E0,4.954467052E0
1.355483333E0,-3.337720795E-1,-4.760211538E0,-4.861212541E0,6.811931081E0
1.365436333E0,-6.224996947E-1,-5.390360999E0,-7.143451561E0,8.970640879E0
1.375389333E0,-1.055474319E0,-5.327022205E0,-1.005553862E1,1.142825658E1
1.385343333E0,-6.681965621E-1,-5.238827482E0,-1.202669115E1,1.313518557E1
1.395296333E0,-1.463119537E-2,-4.930212024E0,-1.375011118E1,1.460728456E1
1.405249333E0,1.822995560E-1,-3.928794483E0,-1.500653983E1,1.551337800E1
1.415202333E0,6.228485176E-2,-2.367131529E0,-1.606097057E1,1.623459167E1
1.425156333E0,-8.926871046E-2,-1.500272160E0,-1.675368436E1,1.682096089E1
1.435109333E0,-5.206949924E-1,-1.565580881E0,-1.710134928E1,1.718075417E1
1.445062333E0,-1.136860691E0,-8.782427278E-1,-1.645867011E1,1.652124645E1
1.455015333E0,-9.589578389E-1,-7.206400931E-1,-1.493047691E1,1.497858682E1
1.464969333E0,-5.540904875E-1,-1.444156724E0,-1.346871276E1,1.355724265E1
1.474922333E0,-6.660556041E-1,-2.964859933E0,-1.255591328E1,1.291839707E1
1.484875333E0,-8.637844639E-1,-4.477645134E0,-1.212714164E1,1.295619519E1
1.494828333E0,-1.020583837E0,-4.991194975E0,-1.190467613E1,1.294893557E1
1.504781333E0,-1.346469046E0,-4.278499494E0,-1.153396149E1,1.237541128E1
1.514735333E0,-1.516118407E0,-3.663300487E0,-1.058080336E1,1.129919400E1
1.524688333E0,-1.840233664E0,-3.140637760E0,-1.014835030E1,1.078142288E1
1.534641333E0,-1.371179964E0,-3.165878728E0,-1.044342302E1,1.099854568E1
1.544594333E0,-1.295011063E0,-3.061750050E0,-9.951548227E0,1.049212462E1
1.554548333E0,-1.119508786E0,-2.723981545E0,-8.584412490E0,9.075544786E0
1.564501333E0,-5.350289299E-1,-2.602486052E0,-7.580925618E0,8.033033228E0
1.574454333E0,-2.875656638E-1,-2.304070477E0,-7.621043950E0,7.966915693E0
1.584407333E0,-4.236987479E-1,-2.086857087E0,-8.099185392E0,8.374443094E0
1.594360333E0,-7.842577994E-1,-1.844434011E0,-7.813865826E0,8.066814505E0
1.604314333E0,-1.016984949E0,-1.522836419E0,-7.618295758E0,7.835286811E0
1.614267333E0,-8.079321523E-1,-1.540477469E0,-8.923061001E0,9.091030900E0
1.624220333E0,-4.328630890E-1,-2.106332554E0,-9.671153187E0,9.907331187E0
1.634173333E0,-4.061275725E-1,-2.936562917E0,-8.858020082E0,9.340923999E0
1.644127333E0,-7.101617365E-1,-3.404038745E0,-6.620601139E0,7.478246380E0
1.654080333E0,-8.803037252E-1,-3.271322153E0,-2.908951195E0,4.465252550E0
1.664033333E0,-2.608467753E-1,-3.176221283E0,8.184873998E-2,3.187965166E0
1.673986333E0,9.461712939E-1,-2.457704022E0,1.614902145E0,3.089248795E0
1.683939333E0,2.255149309E0,-1.179441723E0,2.041275263E0,3.262450901E0
1.693889291E0,3.043635376E0,-3.423413202E-2,3.374161520E0,4.544211069E0
1.703842292E0,3.239048738E0,2.546096966E0,7.930907203E0,8.937188347E0
1.713795291E0,3.947277824E0,5.636544566E0,1.759707739E1,1.889467569E1
1.723748291E0,4.792942205E0,8.336146730E0,2.873434272E1,3.030059552E1
1.733702291E0,5.709601432E0,8.142713819E0,3.663998410E1,3.796566570E1
1.743655291E0,6.202421139E0,3.862653703E0,4.039018474E1,4.104579327E1
1.753608292E0,6.337559064E0,-6.758800958E-1,3.962914857E1,4.013839665E1
1.763561292E0,5.197364291E0,-2.588836604E0,3.749103699E1,3.793800897E1
1.773514291E0,4.788583106E0,-2.941941771E0,3.512252405E1,3.556933012E1
1.783468292E0,3.532004475E0,-2.219627766E0,3.171890192E1,3.199203873E1
1.793421291E0,2.560920827E0,-3.148787025E-1,2.804865377E1,2.816708083E1
1.803374291E0,1.714844802E0,1.682250375E0,2.385434308E1,2.397499411E1
1.813327292E0,9.496809389E-1,2.658554710E0,1.887568336E1,1.908562887E1
1.823281291E0,4.422481625E-1,2.416833300E0,1.334021903E1,1.356459031E1
1.833234292E0,3.103329308E-2,1.288511006E0,9.183004820E0,9.273014677E0
1.843187292E0,-2.929357101E-1,1.978208072E-1,4.019135719E0,4.034649468E0
1.853140291E0,-5.757236505E-1,-8.504713771E-1,-2.092172352E0,2.330653221E0
1.863093291E0,-6.461867653E-1,-1.912909146E0,-7.261437848E0,7.536926320E0
1.873047291E0,-7.613513321E-1,-3.287858663E0,-1.119451776E1,1.169217252E1
1.883000291E0,9.677258849E-2,-2.539300747E0,-1.357382933E1,1.380964358E1
1.892953292E0,7.783194403E-1,-1.905807264E0,-1.506729474E1,1.520727633E1
1.902906292E0,7.004053648E-1,-1.665282779E0,-1.603471891E1,1.613616884E1
1.912860292E0,1.322806826E-1,-4.770623383E-1,-1.729639602E1,1.730347948E1
1.922813292E0,-6.807301419E-1,1.005265594E0,-1.907258133E1,1.911118288E1
1.932766291E0,-1.319571269E0,1.459141968E0,-1.951533952E1,1.961425094E1
1.942719291E0,-1.742319114E0,9.534905460E-1,-1.900437473E1,1.910788002E1
1.952672292E0,-1.900290123E0,-1.224102902E-1,-1.748882087E1,1.759218413E1
1.962626291E0,-1.353845455E0,-1.560094146E0,-1.582652061E1,1.596075017E1
1.972579292E0,-9.223585812E-1,-2.901698894E0,-1.432880661E1,1.464873034E1
1.982532292E0,-4.723121334E-1,-4.098844963E0,-1.283912317E1,1.348579596E1
1.992485291E0,1.196186102E-1,-4.834071812E0,-1.154339305E1,1.251528993E1
2.002439292E0,4.243006457E-1,-5.107818861E0,-1.053034773E1,1.171145029E1
2.012392291E0,5.733507042E-1,-4.916168767E0,-1.002325263E1,1.117868685E1
2.022345291E0,7.559275279E-1,-4.349759511E0,-9.838178902E0,1.078339456E1
2.032298292E0,3.925105767E-1,-3.684252230E0,-9.365438533E0,1.007170383E1
2.042251292E0,9.408169985E-3,-3.296442668E0,-8.797809548E0,9.395109133E0
2.052205292E0,-1.260319825E-1,-3.166519291E0,-8.734614011E0,9.291728063E0
2.062158292E0,-1.318846069E-1,-2.936974269E0,-8.753523906E0,9.234034448E0
2.072111291E0,-4.197966816E-1,-2.771871411E0,-8.596008688E0,9.041618535E0
2.082064291E0,-6.024816057E-1,-1.958500178E0,-8.261498251E0,8.511818865E0
2.092018291E0,-5.809037354E-1,-1.266679842E0,-8.165049598E0,8.283113057E0
2.101971291E0,-4.239097593E-1,-6.681638177E-1,-7.861921753E0,7.901642615E0
2.111924292E0,-3.053437575E-1,-4.383219033E-2,-7.632520280E0,7.638751331E0
2.121877291E0,-3.286467757E-1,-3.561334401E-2,-7.919041448E0,7.925938082E0
2.131830291E0,-3.010755459E-1,-3.885524502E-1,-8.284407642E0,8.298977616E0
2.141784291E0,-2.636748177E-1,-5.105134550E-1,-7.658944432E0,7.680467317E0
2.151737291E0,-2.503450298E-1,-5.443997508E-1,-6.501873425E0,6.529425837E0
2.161690291E0,-1.801285945E-2,-3.498123807E-1,-5.424507569E0,5.435804957E0
2.171643292E0,3.531876129E-1,-1.031826717E-1,-4.070249155E0,4.086846747E0
2.181597291E0,6.475459506E-1,-3.344437784E-1,-4.567055494E-1,8.600862502E-1
2.191550292E0,4.948981002E-1,-1.566270999E-1,4.181284856E0,4.213383347E0
2.201503291E0,1.945485592E-2,1.723004006E0,6.798913735E0,7.013868353E0
2.211456291E0,-1.499736263E-1,4.255038711E0,1.050711090E1,1.133698487E1
2.221410291E0,9.738248232E-1,6.571489790E0,1.570236902E1,1.704984474E1
2.231363291E0,3.898397148E0,9.494714624E0,2.118944180E1,2.354441653E1
2.241316292E0,6.066342983E0,1.153540458E1,2.968108646E1,3.241655394E1
2.251269292E0,7.728406430E0,1.014124711E1,3.688567709E1,3.902725116E1
2.261222291E0,9.019279858E0,6.624547425E0,3.942276525E1,4.098031793E1
2.271176292E0,8.951449233E0,2.887439581E0,3.918135944E1,4.029447454E1
2.281129291E0,8.099586511E0,1.681600749E-1,3.672516868E1,3.760810543E1
2.291082291E0,6.142691832E0,-1.121203601E-3,3.299556428E1,3.356247795E1
2.301035292E0,3.358561149E0,9.148172079E-1,2.838375069E1,2.859640059E1
2.310988292E0,5.942613707E-1,6.982046190E-1,2.355810910E1,2.357594411E1
2.320942292E0,-8.352026159E-1,2.402531742E-1,1.917602092E1,1.919570429E1
2.330895292E0,-1.030770710E0,-2.033109042E-1,1.469414649E1,1.473165858E1
2.340848291E0,-4.972553321E-1,-1.034618032E0,1.055361848E1,1.061586362E1
2.350801291E0,3.815798648E-1,-2.403077579E0,5.555768205E0,6.065224266E0
2.360755291E0,7.850455655E-1,-4.171222383E0,4.628901494E-1,4.269620592E0
2.370708291E0,8.150716026E-1,-5.778084607E0,-4.434805509E0,7.329263492E0
2.380661292E0,5.131877522E-1,-6.286382478E0,-8.805260071E0,1.083118513E1
2.390614292E0,-9.047647113E-2,-5.727168807E0,-1.311511292E1,1.431135338E1
2.400568292E0,-9.550787960E-1,-4.911836565E0,-1.728890925E1,1.799846374E1
2.410521292E0,-1.820606315E0,-4.286271906E0,-2.062281620E1,2.114207374E1
2.420474291E0,-2.329794718E0,-3.096301247E0,-2.272555914E1,2.305354774E1
2.430427291E0,-2.411648574E0,-1.548148577E0,-2.213441967E1,2.231916995E1
2.440380292E0,-2.238046934E0,8.099475414E-2,-2.147755049E1,2.159399428E1
2.450334291E0,-1.367321679E0,9.709725514E-1,-2.062695135E1,2.069501095E1
2.460287292E0,-5.923369789E-1,1.498496068E0,-1.980348095E1,1.986892577E1
2.470240292E0,1.135758637E0,1.477958601E0,-1.836015892E1,1.845453182E1
2.480193291E0,3.527674320E0,5.928341384E-1,-1.464303247E1,1.507363056E1
2.490147292E0,4.222949776E0,-1.780341218E-1,-1.123516292E1,1.200391131E1
2.500100291E0,2.785562666E0,-6.870748825E-1,-1.151698000E1,1.186896203E1
2.510053291E0,1.631077736E0,-2.647301744E0,-1.217164362E1,1.256254471E1
2.520006292E0,1.499332366E0,-5.016951376E0,-1.101761492E1,1.219859161E1
2.529959292E0,1.377119566E0,-5.878908146E0,-9.575368778E0,1.132014605E1
2.539913292E0,9.576009925E-1,-5.410599382E0,-8.408181503E0,1.004435670E1
2.549866292E0,1.653004064E0,-4.026411994E0,-7.731572698E0,8.872521195E0
2.559819291E0,3.275947593E0,-1.786206414E0,-7.544840112E0,8.417064708E0
2.569772291E0,2.789590228E0,-1.397646947E0,-6.997658256E0,7.661752521E0
2.579726291E0,1.509537366E0,-2.063467786E0,-7.270530269E0,7.706958722E0
2.589679291E0,9.091930635E-2,-1.546477151E0,-1.058987707E1,1.070258633E1
2.599632292E0,-9.904405636E-1,-6.287829664E-1,-1.137066162E1,1.143102297E1
2.609585291E0,-1.234410959E0,-5.599956637E-1,-1.162621535E1,1.170496685E1
2.619538291E0,-1.214782879E0,-9.910922357E-1,-1.132474226E1,1.143274895E1
2.629492291E0,-1.313191372E0,-1.309342881E0,-1.015144348E1,1.031943095E1
2.639445291E0,-1.165847824E0,-1.874083780E0,-8.972709124E0,9.240178580E0
2.649398291E0,-9.525145727E-1,-2.117634930E0,-8.333409648E0,8.650859961E0
2.659351292E0,-1.010057314E0,-1.961889371E0,-7.673875297E0,7.984834861E0
2.669305291E0,-7.835005850E-2,-1.868105148E0,-5.584631231E0,5.889317580E0
2.679258292E0,8.971150549E-1,-1.790825861E0,-2.391537514E0,3.119507071E0
2.689211791E0,1.591663848E0,-1.409520303E0,-6.613493264E-1,2.226549848E0
2.699164791E0,1.145695176E0,-9.039276458E-1,1.649951525E0,2.202735268E0
2.709117792E0,2.060343911E-1,3.754022815E-1,4.689499698E0,4.709010985E0
2.719071792E0,-2.864787395E-1,2.418918563E0,8.166237752E0,8.521776582E0
2.729024792E0,1.806028768E-1,5.156239654E0,1.248366275E1,1.350782219E1
2.738977791E0,1.913448113E0,7.191013398E0,1.690092076E1,1.846653947E1
2.748930791E0,3.162489390E0,7.231342814E0,2.318962692E1,2.449596813E1
2.758884791E0,2.753552084E0,5.150579549E0,2.959718125E1,3.016792430E1
2.768837791E0,1.861301913E0,3.107848037E0,3.337969126E1,3.357568991E1
2.778790792E0,1.203179372E0,1.585377215E0,3.451730917E1,3.457463946E1
2.788743792E0,1.618198513E0,-3.345651081E-1,3.294016776E1,3.298158808E1
2.798696791E0,2.032603843E0,-1.173158963E0,2.889905645E1,2.899419328E1
2.808650792E0,1.932310353E0,1.561308905E-2,2.525801163E1,2.533182225E1
2.818603791E0,1.296328880E0,1.807591436E0,2.327505708E1,2.338110642E1
2.828556791E0,2.384508430E-1,2.252535165E0,2.037166659E1,2.049720891E1
2.838509792E0,-8.214272337E-1,2.031474307E0,1.683809828E1,1.698008198E1
2.848463791E0,-1.269469841E0,2.146758303E0,1.370764637E1,1.393268437E1
2.858416792E0,-1.006650142E0,1.773394434E0,1.011287875E1,1.031642327E1
2.868369792E0,-6.192840915E-1,7.243941517E-1,5.827019954E0,5.904440805E0
2.878322791E0,4.680629983E-1,-5.980086319E-1,1.409681248E0,1.601217823E0
2.888275791E0,1.381180019E0,-1.576559613E0,-2.424262041E0,3.204722282E0
2.898229791E0,1.549198445E0,-2.486158327E0,-5.921373550E0,6.606335124E0
2.908182791E0,1.217384963E0,-3.222735884E0,-9.261718867E0,9.881674408E0
2.918135792E0,8.041152361E-1,-3.788370383E0,-1.146263598E1,1.209918903E1
2.928088792E0,2.443471753E-1,-3.043210868E0,-1.301488229E1,1.336817111E1
2.938042792E0,4.373278767E-3,-1.339519484E0,-1.430601767E1,1.436859329E1
2.947995792E0,-1.843727229E-1,7.515075445E-1,-1.519678484E1,1.521647221E1
2.957948791E0,-3.423951877E-1,2.223935995E0,-1.604058718E1,1.619764065E1
2.967901791E0,-6.951368042E-1,1.902548026E0,-1.661491941E1,1.673793449E1
2.977855791E0,-1.190701195E0,8.891416454E-1,-1.563611890E1,1.570657685E1
2.987808791E0,-1.276601251E0,4.571967155E-2,-1.405251748E1,1.411045884E1
2.997761792E0,-5.432351317E-1,-3.133294827E-1,-1.380721392E1,1.382144841E1
3.007714792E0,9.489045748E-1,-1.616503698E-1,-1.347905064E1,1.351337696E1
3.017667791E0,2.835535895E0,-1.768534228E-1,-1.206855487E1,1.239844981E1
3.027621792E0,3.695645530E0,-7.106382845E-1,-1.076279794E1,1.140178154E1
3.037574791E0,3.376007194E0,-1.779596575E0,-9.828715768E0,1.054362567E1
3.047527791E0,2.965277131E0,-2.177482644E0,-9.369412885E0,1.006579341E1
3.057480792E0,1.440564048E0,-1.667742556E0,-8.951340474E0,9.218627138E0
3.067434791E0,6.579977024E-1,-2.568500280E0,-8.673729293E0,9.069935751E0
3.077387792E0,-2.885994515E-1,-3.253658592E0,-8.047410636E0,8.685067750E0
3.087340791E0,-1.091857522E0,-3.249535135E0,-7.704122944E0,8.432386482E0
3.097293791E0,-1.583185678E0,-2.548132966E0,-7.928209298E0,8.476789556E0
3.107246791E0,-1.653722979E0,-2.276932088E0,-8.463142406E0,8.918744240E0
3.117200791E0,-8.806248835E-1,-1.848133544E0,-8.903219644E0,9.135557882E0
3.127153791E0,4.291652367E-1,-1.498152398E0,-8.456882377E0,8.599273397E0
3.137106792E0,1.804031066E0,-1.210861152E0,-7.709146872E0,8.009473035E0
3.147059791E0,2.511302232E0,-1.135188826E0,-7.341152939E0,7.841416903E0
3.157013792E0,1.964756845E0,-1.345224320E0,-6.537532670E0,6.957674277E0
3.166966791E0,7.279439232E-1,-1.477752194E0,-5.267229162E0,5.518818438E0
3.176919791E0,-4.324525779E-1,-8.844932552E-1,-3.424974409E0,3.563676929E0
3.186872791E0,-3.882643652E-1,1.869272983E-1,-5.272346646E-1,6.809312914E-1
3.196825792E0,7.801928882E-1,9.893923040E-1,2.207696376E0,2.541952274E0
3.206779792E0,1.765736774E0,2.392114342E0,5.041155925E0,5.852631070E0
3.216732792E0,2.669909418E0,3.238352335E0,8.184653558E0,9.198037618E0
3.226685791E0,2.364936191E0,3.795453992E0,1.037908845E1,1.130149863E1
3.236638791E0,1.141886446E0,4.812523361E0,1.227441663E1,1.323350253E1
3.246592791E0,-1.340479305E-1,5.777889894E0,1.457715306E1,1.568105136E1
3.256545791E0,-6.963048586E-1,5.882974300E0,1.584431486E1,1.691557095E1
3.266498792E0,1.622649852E-2,5.189194561E0,1.588604761E1,1.671210675E1
3.276451792E0,1.308260708E0,4.563151892E0,1.615110189E1,1.683425061E1
3.286404791E0,2.259942856E0,4.024560766E0,1.635963699E1,1.699829855E1
3.296358792E0,2.591442708E0,2.936254769E0,1.671313392E1,1.716583854E1
3.306311791E0,1.720445119E0,1.578010161E0,1.706750560E1,1.722642722E1
3.316264791E0,2.664064541E-1,4.114853762E-1,1.717051249E1,1.717750831E1
3.326217792E0,-8.850455978E-1,-4.573671618E-1,1.600407482E1,1.603505227E1
3.336171791E0,-1.771208745E0,-8.116768554E-2,1.386065397E1,1.397360000E1
3.346124792E0,-9.550596464E-1,9.374747300E-1,1.071865497E1,1.080187772E1
3.356077792E0,1.687702319E0,1.280281196E0,7.669858260E0,7.957021100E0
3.366030791E0,3.899488238E0,1.886924265E0,3.787918101E0,5.754547353E0
3.375983791E0,4.222555674E0,1.497089082E0,3.094755828E-1,4.490771345E0
3.385937791E0,2.548591680E0,5.362819152E-1,-8.306601334E-1,2.733663129E0
3.395890791E0,5.745089646E-1,-1.055044110E0,-1.657863393E0,2.047361633E0
3.405843792E0,-9.810314434E-1,-2.511786966E0,-2.874925663E0,3.941661328E0
3.415796792E0,-2.406552872E0,-3.650935088E0,-3.222312838E0,5.431769855E0
3.425750792E0,-3.430431323E0,-4.144781274E0,-3.270703810E0,6.296393752E0
3.435703792E0,-2.829937770E0,-4.295485948E0,-3.526647549E0,6.236745164E0
3.445656791E0,-8.434934561E-1,-3.830309245E0,-3.509272547E0,5.262864613E0
3.455609791E0,1.159237035E0,-2.288722998E0,-4.087962710E0,4.826336352E0
3.465562792E0,1.772867307E0,-1.137370276E0,-5.974900131E0,6.335305929E0
3.475516791E0,1.895047071E0,-1.244730710E0,-8.245121369E0,8.551174442E0
3.485469792E0,1.655193993E0,-2.211089954E0,-9.097503324E0,9.507531366E0
3.495422792E0,4.009031584E-1,-2.475453537E0,-8.237365038E0,8.610619973E0
3.505375791E0,-4.095731905E-1,-2.494927981E0,-7.025188701E0,7.466303779E0
3.515329792E0,-4.907839993E-1,-3.022480150E0,-6.534132514E0,7.216033738E0
3.525282791E0,-5.393916106E-1,-3.483335761E0,-5.556037762E0,6.579827273E0
3.535235791E0,-2.527885813E-1,-4.047549971E0,-4.974861948E0,6.418396547E0
3.545188792E0,4.241789505E-2,-4.100494170E0,-5.482369276E0,6.846329279E0
3.555141791E0,5.600875381E-1,-3.927189715E0,-5.930856564E0,7.135234873E0
3.565095792E0,1.346540236E0,-3.836326030E0,-6.719764654E0,7.854031132E0
3.575048791E0,1.842842984E0,-3.437881260E0,-7.133817104E0,8.130586959E0
3.585001791E0,2.066889430E0,-3.131008273E0,-7.387729520E0,8.285758395E0
3.594954791E0,2.090254465E0,-3.262560393E0,-6.701019650E0,7.740615505E0
3.604908791E0,1.566023223E0,-3.570010500E0,-3.839351379E0,5.471564924E0
3.614861791E0,3.365622246E-1,-3.151863245E0,-1.520771914E0,3.515716607E0
3.624814792E0,-1.092000852E0,-2.858473352E0,-8.136266094E-1,3.166279208E0
3.634767791E0,-1.347373903E0,-3.198604133E0,-1.413307691E0,3.747522310E0
3.644720791E0,-5.711776596E-1,-3.902576737E0,-2.241476326E0,4.536580786E0
3.654674791E0,2.682000875E-2,-4.673245608E0,-1.724513465E0,4.981354285E0
3.664627791E0,-2.416723519E0,-6.446627178E0,6.040432216E0,9.158950589E0
3.674580791E0,-4.160936838E0,-5.185901409E0,1.972841790E0,6.935349561E0
3.684533792E0,-2.551673455E0,3.744439960E-2,-5.913217269E0,6.440386477E0
3.694487041E0,-2.884557781E0,2.319920817E0,3.387080358E0,5.017471429E0
3.704440041E0,-3.328052424E0,4.482620530E0,2.914841096E0,6.298104347E0
3.714393042E0,-2.247707996E0,6.141946312E0,1.285809739E0,6.665508414E0
3.724346042E0,-4.290745318E-2,6.845760457E0,4.441771297E0,8.160613306E0
3.734299041E0,7.347774911E-1,4.788517617E0,3.734228382E0,6.116719753E0
3.744253042E0,-3.588790002E-1,2.244801638E0,2.266569067E0,3.210181282E0
3.754206041E0,-3.443311569E0,8.801842958E-2,5.942221797E0,6.868343446E0
3.764159041E0,-5.470072582E0,-5.689305747E-1,1.109033441E1,1.237905058E1
3.774112042E0,-7.590064232E0,3.540474167E0,6.071510752E0,1.034443209E1
3.784066041E0,-9.272618077E0,5.741454724E0,5.648833659E0,1.228230720E1
3.794019042E0,-7.313635358E0,4.419307756E0,8.147190447E0,1.180661913E1
3.803972041E0,-6.765534904E0,2.995763052E0,9.092323861E0,1.172251731E1
3.813925041E0,-7.298610937E0,3.153221553E0,7.927879515E0,1.122781374E1
3.823878041E0,-8.170574632E0,4.191615132E0,7.849150264E0,1.208044234E1
3.833832041E0,-7.837061731E0,3.695185938E0,7.206828947E0,1.126997423E1
3.843785041E0,-6.429954427E0,1.632563075E0,6.553744075E0,9.325295573E0
3.853738042E0,-4.791543551E0,-3.514468968E-2,5.038034096E0,6.952834840E0
3.863691041E0,-2.925961915E0,-6.868763696E-1,3.425094861E0,4.556789120E0
3.873645042E0,-1.251514065E0,-6.923872241E-1,2.368840962E0,2.767145646E0
3.883598041E0,2.806043708E-1,-1.621828318E0,2.003631474E0,2.592991514E0
3.893551041E0,1.925736621E0,-9.050941654E-1,1.070396560E0,2.381891219E0
3.903504041E0,2.755429040E0,-3.768784842E-1,-8.408722955E-1,2.905424720E0
3.913457042E0,2.645002034E0,-2.573109640E-1,-2.551351274E0,3.683970414E0
3.923411041E0,2.602002195E0,-9.693042677E-1,-2.990190656E0,4.080588970E0
3.933364042E0,2.651361465E0,-1.610960391E0,-6.448122311E-1,3.168705385E0
3.943317041E0,1.654401841E0,-1.549892655E0,-8.939492261E-1,2.436874620E0
3.953270041E0,1.816673185E0,-6.339301242E-1,-2.109442688E0,2.855156269E0
3.963224041E0,2.915343372E0,1.181567478E0,-3.608130253E0,4.786849967E0
3.973177041E0,3.509102978E0,3.321213374E-1,-5.830381519E0,6.813035810E0
3.983130042E0,4.768969206E0,-1.043005644E0,-7.086093884E0,8.604862265E0
3.993083042E0,5.241916566E0,-9.056044811E-1,-6.517815859E0,8.413069138E0
4.003036041E0,3.908065519E0,-5.085510564E-1,-4.979802845E0,6.350593409E0
4.012990042E0,2.680805705E0,-5.805213641E-1,-3.924297974E0,4.787884592E0
4.022943041E0,1.598890715E0,-1.849030215E0,-5.010454534E0,5.574945640E0
4.032896041E0,2.642824531E-2,-2.382278156E0,-6.643841482E0,7.058085952E0
4.042849042E0,1.374095678E-3,-5.237552058E-1,-5.499635519E0,5.524519187E0
4.052803041E0,1.949436556E0,4.035608641E-1,-5.106222571E0,5.480572342E0
4.062756042E0,3.544135986E0,9.725352198E-2,-4.900402919E0,6.048496251E0
4.072709042E0,4.881616400E0,5.332445790E-1,-4.791403218E0,6.860909069E0
4.082662041E0,5.628176615E0,5.713742723E-1,-4.299440128E0,7.105492663E0
4.092615041E0,4.701938480E0,2.112544928E-1,-4.547512345E0,6.544671302E0
4.102569041E0,4.756630411E0,-2.926221532E-1,-4.960733321E0,6.878956002E0
4.112522041E0,4.840367802E0,-7.594407544E-1,-4.815048189E0,6.869541453E0
4.122475042E0,4.410749479E0,-1.015719392E0,-4.900716915E0,6.671088601E0
4.132428042E0,4.377189969E0,-6.465007608E-1,-4.593630504E0,6.378024496E0
4.142382042E0,4.908886060E0,-9.500015125E-2,-3.243959815E0,5.884680336E0
4.152335042E0,7.104562315E0,1.124824928E0,-1.960460311E0,7.455430332E0
4.162288041E0,8.461649027E0,7.586005095E-1,-2.083167640E0,8.747260509E0
4.172241041E0,7.579312372E0,-6.026678395E-1,-3.389515139E0,8.324541875E0
4.182194042E0,6.112176383E0,-3.816229150E-1,-5.875995648E-1,6.152203624E0
4.192148041E0,4.186716920E0,2.743492534E0,3.137144049E0,5.907370196E0
4.202101042E0,1.092970613E0,6.730405417E0,2.195304957E0,7.163260828E0
4.212054042E0,-1.005587776E0,9.462388292E0,1.910913345E0,9.705647262E0
4.222007041E0,-1.960395992E-2,9.219761587E0,3.372747663E0,9.817322182E0
4.231961042E0,1.532134515E0,8.345865387E0,4.480069390E0,9.595411766E0
4.241914041E0,-6.624295995E-1,8.794515227E0,8.022105056E0,1.192210051E1
4.251867041E0,-5.967815645E0,8.190855115E0,9.827911191E0,1.411710910E1
4.261820042E0,-9.362765771E0,7.221514814E0,1.406679521E1,1.837624517E1
4.271773042E0,-7.466388019E0,7.447627813E0,1.298441362E1,1.672749554E1
4.281727042E0,-5.804851406E0,6.413048372E0,1.009660595E1,1.329529770E1
4.291680041E0,-5.719739919E0,5.536295807E0,1.108832881E1,1.364979970E1
4.301633041E0,-4.791324865E0,5.167984371E0,1.081846928E1,1.291139551E1
4.311586041E0,-3.899696984E0,4.182685264E0,1.051474736E1,1.196922740E1
4.321539042E0,-3.290148141E0,3.297521480E0,1.046124885E1,1.145148244E1
4.331493041E0,-3.084493380E0,2.593526363E0,8.797350542E0,9.676458803E0
4.341446042E0,-4.209396807E0,2.431977150E0,6.507165740E0,8.122606743E0
4.351399041E0,-4.331030295E0,2.221477971E0,2.934619887E0,5.683729557E0
4.361352041E0,-2.505248609E0,8.424405187E-2,6.110433912E-1,2.580066217E0
4.371306041E0,-9.669603382E-1,-1.181185801E0,-2.337907437E0,2.792135988E0
4.381259041E0,-3.555607054E-1,-1.434486014E0,-4.452781019E0,4.691634294E0
4.391212041E0,9.206742176E-1,-2.637495378E0,-5.510492629E0,6.178151172E0
4.401165042E0,2.030382485E0,-4.051053915E0,-5.361733031E0,7.020090595E0
4.411118041E0,1.801526996E0,-4.892522627E0,-4.086945294E0,6.624605574E0
4.421072042E0,5.951060741E-1,-5.752118876E0,-3.840885104E0,6.942148168E0
4.431025041E0,-4.029028331E-1,-6.860964387E0,-3.787946752E0,7.847528503E0
4.440978041E0,-7.413915691E-1,-7.194781929E0,-3.855437070E0,8.196276195E0
4.450931042E0,-1.107581197E0,-6.193706449E0,-5.440317271E0,8.317799450E0
4.460885041E0,-1.505157801E0,-5.864339808E0,-7.820432834E0,9.890154251E0
4.470838042E0,-1.736013769E0,-4.385693283E0,-9.249792302E0,1.038300087E1
4.480791042E0,-2.321113503E0,-2.919401339E0,-9.631621331E0,1.032853337E1
4.490744041E0,-2.983237731E0,-3.107004576E0,-8.984018224E0,9.963220777E0
4.500697041E0,-2.183709782E0,-3.495345064E0,-9.180598691E0,1.006327073E1
4.510651041E0,-2.456390153E0,-3.250210781E0,-9.178945683E0,1.004244823E1
4.520604041E0,-3.013730084E0,-3.355081763E0,-1.010275605E1,1.106367130E1
4.530557042E0,-3.099404657E0,-3.487802156E0,-1.028555405E1,1.129440991E1
4.540510042E0,-2.985757004E0,-3.233570774E0,-8.889725440E0,9.919573743E0
4.550464042E0,-3.632516358E0,-2.971460270E0,-7.283920977E0,8.664886383E0
4.560417042E0,-3.027623361E0,-2.738451942E0,-6.235754946E0,7.453204814E0
4.570370041E0,-2.519003015E0,-2.167642949E0,-7.209963639E0,7.938994132E0
4.580323041E0,-3.903214084E0,-1.252698126E0,-8.135607113E0,9.110018435E0
4.590276042E0,-4.427674537E0,-2.711058321E0,-8.577270116E0,1.002615089E1
4.600230041E0,-4.593700963E0,-3.132777348E0,-6.907229311E0,8.867141547E0
4.610183042E0,-4.310022418E0,-2.416205748E0,-5.978040671E0,7.755727801E0
4.620136042E0,-4.647212049E0,-2.607366430E0,-5.665370169E0,7.777619089E0
4.630089041E0,-4.242913340E0,-2.375345112E0,-7.935010194E0,9.306393759E0
4.640043042E0,-3.778245052E0,-9.275426495E-1,-9.524164710E0,1.028810889E1
4.649996041E0,-3.767858058E0,1.909216775E-1,-8.922156436E0,9.687005776E0
4.659949041E0,-3.207028216E0,4.811286382E-1,-7.980305650E0,8.614046263E0
4.669902042E0,-2.221345532E0,6.693260980E-1,-6.938341177E0,7.315938195E0
4.679856041E0,-1.634104401E0,5.468402325E-1,-5.484780083E0,5.749099407E0
4.689808916E0,-1.089661381E0,2.299978888E-1,-3.981303064E0,4.134130506E0
4.699761916E0,4.472932863E-1,1.453019933E-1,-2.413586195E0,2.458979926E0
4.709714917E0,2.513004649E0,3.076389724E-1,7.234397399E-1,2.633096876E0
4.719667917E0,4.907755208E0,8.640521201E-1,4.665689836E0,6.826515135E0
4.729621917E0,7.924353059E0,1.586872055E0,8.783681506E0,1.193593713E1
4.739574917E0,1.074351032E1,1.280588175E0,1.333734688E1,1.717404267E1
4.749527916E0,1.323374006E1,1.170904934E-2,1.555966071E1,2.042633238E1
4.759480916E0,1.495021477E1,-1.466031158E0,1.742693394E1,2.300774208E1
4.769433917E0,1.647953649E1,-2.535904684E0,1.867093375E1,2.503217335E1
4.779387916E0,1.805824378E1,-3.305388908E0,1.834217990E1,2.595113346E1
4.789340917E0,1.893532964E1,-4.292085207E0,1.721976475E1,2.595166665E1
4.799293917E0,1.841330192E1,-5.201719882E0,1.560540932E1,2.469081565E1
4.809246916E0,1.606137052E1,-5.457181810E0,1.387768807E1,2.191663027E1
4.819200917E0,1.269383740E1,-5.463629535E0,1.234149705E1,1.852828393E1
4.829153916E0,9.492917190E0,-5.288575008E0,1.097934022E1,1.544766694E1
4.839106916E0,7.250487183E0,-4.741209549E0,9.257401283E0,1.267864783E1
4.849059917E0,6.513994703E0,-4.848012452E0,6.782583631E0,1.058011306E1
4.859012917E0,5.405373725E0,-3.689264463E0,4.230059698E0,7.792441366E0
4.868966917E0,4.359201595E0,-2.071322351E0,1.229347270E0,4.980392508E0
4.878919917E0,4.487469626E0,-2.135044137E0,1.097358656E-1,4.970698047E0
4.888872916E0,3.104896654E0,-1.003486798E0,-8.618415803E-2,3.264168607E0
4.898825916E0,1.573707926E0,5.226755905E-1,-4.395492339E-1,1.715502824E0
4.908779916E0,1.615837115E-1,1.611657087E0,-6.265773967E-1,1.736705817E0
4.918732916E0,-1.348179649E0,2.452946435E0,-7.923731500E-1,2.909018698E0
4.928685917E0,-3.098669955E0,3.157091240E0,-1.306686637E0,4.612635966E0
4.938638916E0,-4.964969044E0,3.786793681E0,-1.989084771E0,6.553409969E0
4.948592917E0,-6.706329507E0,4.267662849E0,-2.285389208E0,8.271082485E0
4.958545916E0,-8.018802549E0,4.504877664E0,-2.496452351E0,9.530340572E0
4.968498916E0,-8.560638295E0,4.679810569E0,-2.980962580E0,1.020153385E1
4.978451916E0,-8.386387176E0,4.518063428E0,-4.130179607E0,1.038281130E1
4.988404917E0,-8.792093310E0,3.739488245E0,-5.079015477E0,1.082040089E1
4.998358916E0,-9.294540458E0,3.296252049E0,-5.606726105E0,1.134412348E1
5.008311917E0,-9.552333671E0,3.247710219E0,-5.371579742E0,1.143016050E1
5.018264916E0,-9.485856677E0,3.267575842E0,-4.701742890E0,1.107993299E1
5.028217916E0,-9.168133011E0,3.254214954E0,-3.992698703E0,1.051599833E1
5.038170916E0,-8.640108388E0,3.231941740E0,-3.188068912E0,9.760159003E0
5.048124916E0,-7.901105114E0,3.206279188E0,-2.424001548E0,8.864731906E0
5.058077917E0,-7.273480189E0,3.243052327E0,-1.773889693E0,8.158896194E0
5.068030917E0,-6.501905585E0,3.241254308E0,-1.344452049E0,7.388373098E0
5.077983916E0,-5.584432425E0,3.025007609E0,-1.200916353E0,6.463648864E0
5.087937917E0,-5.018230162E0,2.949349901E0,-1.258103584E0,5.955176187E0
5.097890916E0,-4.824155227E0,3.139986380E0,-1.122141495E0,5.864400196E0
5.107843916E0,-4.805846425E0,3.621858054E0,-1.148005776E0,6.126331111E0
5.117796917E0,-4.512492785E0,4.086587445E0,-1.235868962E0,6.212097888E0
5.127749917E0,-4.031252319E0,4.099345192E0,-1.109111267E0,5.855403835E0
5.137703917E0,-3.603100478E0,3.976790476E0,-8.163300696E-1,5.428037428E0
5.147656917E0,-3.195574690E0,3.969889299E0,-3.686739635E-1,5.109563498E0
5.157609916E0,-2.533551180E0,3.921049846E0,3.823140559E-1,4.683980947E0
5.167562916E0,-1.571611115E0,4.001473619E0,1.256971856E0,4.479032358E0
5.177516916E0,-4.126450253E-1,4.439547016E0,1.666613166E0,4.759984566E0
5.187469916E0,9.592684722E-1,4.371265863E0,1.779885428E0,4.816238510E0
5.197422917E0,2.520836994E0,3.409458237E0,2.281367785E0,4.814941702E0
5.207375917E0,4.091767493E0,2.076743596E0,3.108247986E0,5.542258630E0
5.217328916E0,5.714069874E0,6.208722684E-1,4.111129963E0,7.066644640E0
5.227282917E0,7.040632367E0,-6.729885015E-1,5.417748188E0,8.909288023E0
5.237235916E0,8.301138280E0,-1.723965581E0,6.331101984E0,1.058129512E1
5.247188916E0,1.025241086E1,-2.529086831E0,7.216746410E0,1.279021647E1
5.257141917E0,1.275385440E1,-3.454240015E0,8.390343987E0,1.565217072E1
5.267095916E0,1.510166935E1,-4.674770561E0,8.970629269E0,1.817652570E1
5.277048917E0,1.665842854E1,-5.993936911E0,9.084185121E0,1.989856629E1
5.287001917E0,1.718622395E1,-7.288374801E0,8.851605687E0,2.066004899E1
5.296954916E0,1.635365412E1,-8.436063366E0,8.687374356E0,2.034894694E1
5.306907916E0,1.494551595E1,-8.747428769E0,8.680728410E0,1.937113840E1
5.316861916E0,1.399664383E1,-8.564768769E0,8.835089641E0,1.863652627E1
5.326814916E0,1.361473996E1,-8.265681349E0,8.910110587E0,1.825027953E1
5.336767917E0,1.323205489E1,-8.009477994E0,8.775231110E0,1.778324198E1
5.346720917E0,1.220531423E1,-7.620844560E0,8.035508044E0,1.648078751E1
5.356674917E0,1.038598349E1,-6.740285457E0,6.305000013E0,1.389435591E1
5.366627917E0,7.926887242E0,-5.716897588E0,4.288369009E0,1.067279570E1
5.376580916E0,4.508979194E0,-4.274863988E0,2.170791675E0,6.581617733E0
5.386533916E0,4.857925236E-1,-2.307573544E0,-2.120516145E-1,2.367668880E0
5.396486917E0,-3.250271884E0,-1.119171694E-1,-1.792745794E0,3.713587249E0
5.406440916E0,-5.862675691E0,2.144682980E0,-2.333075298E0,6.664373315E0
5.416393917E0,-7.331996199E0,3.865031473E0,-3.441840118E0,8.974569625E0
5.426346916E0,-8.303929156E0,4.849428355E0,-4.965258481E0,1.082247599E1
5.436299916E0,-8.951595998E0,5.364444970E0,-6.567335928E0,1.233037882E1
5.446253916E0,-9.171829036E0,5.465508830E0,-8.387481190E0,1.357733683E1
5.456206916E0,-9.236792187E0,5.300592206E0,-9.794376824E0,1.446873958E1
5.466159916E0,-9.649694490E0,5.099398870E0,-1.069944570E1,1.528393310E1
5.476112917E0,-1.032574781E1,4.846822543E0,-1.080445000E1,1.571142566E1
5.486065916E0,-1.048836355E1,4.542747449E0,-1.016658660E1,1.529711762E1
5.496019917E0,-9.592391192E0,4.073384432E0,-9.000916677E0,1.377036421E1
5.505972916E0,-8.854507075E0,3.649735824E0,-7.578674440E0,1.221307387E1
5.515925916E0,-7.712233032E0,3.026038765E0,-5.999591169E0,1.022890723E1
5.525878916E0,-6.879065613E0,2.674803538E0,-4.452884515E0,8.619994093E0
5.535832916E0,-5.855423974E0,2.225402184E0,-3.501070658E0,7.176064419E0
5.545785917E0,-5.049088258E0,1.903811755E0,-2.823347374E0,6.090080609E0
5.555738917E0,-4.846376401E0,1.994886963E0,-2.266024107E0,5.709798899E0
5.565691916E0,-4.920158907E0,2.162634517E0,-2.052155178E0,5.752937736E0
5.575644916E0,-5.055053002E0,2.192946190E0,-1.833154732E0,5.807153358E0
5.585598916E0,-5.102397323E0,2.372081781E0,-1.781933708E0,5.902246873E0
5.595551916E0,-4.902137788E0,2.654963350E0,-1.576929742E0,5.793659698E0
5.605504917E0,-4.553370085E0,2.789682029E0,-1.323067612E0,5.501455522E0
5.615457917E0,-4.267618411E0,2.905521219E0,-1.177663146E0,5.295423584E0
5.625411917E0,-4.068490312E0,3.024055974E0,-1.157931717E0,5.199839788E0
5.635364917E0,-3.666569080E0,3.103327847E0,-1.164489369E0,4.942712619E0
5.645317916E0,-3.164191514E0,3.234604855E0,-9.416706920E-1,4.621852464E0
5.655270916E0,-2.776805876E0,3.453826325E0,-6.502594972E-1,4.479107564E0
5.665223917E0,-1.998915110E0,3.412678299E0,-8.959045351E-2,3.956015829E0
5.675177916E0,-7.941963118E-1,3.219160896E0,3.774003482E-1,3.337090901E0
5.685130917E0,4.485118461E-1,2.924173544E0,8.391415197E-1,3.075079232E0
5.695084166E0,2.306874509E0,1.861968641E0,2.230414563E0,3.709898428E0
5.705037166E0,4.150361856E0,5.005525039E-1,3.613110911E0,5.525452633E0
5.714991166E0,5.301920693E0,-4.064515083E-1,5.120795002E0,7.382283340E0
5.724944166E0,6.467695280E0,-8.311150467E-1,7.038765936E0,9.595106063E0
5.734897166E0,8.399091421E0,-1.803401760E0,9.306191620E0,1.266499890E1
5.744850167E0,1.112853660E1,-3.259834128E0,1.183220457E1,1.656719380E1
5.754803166E0,1.362594088E1,-4.374885874E0,1.360022834E1,1.974264679E1
5.764757167E0,1.519774612E1,-5.176233623E0,1.374094275E1,2.113240141E1
5.774710166E0,1.553206653E1,-5.507619308E0,1.285848564E1,2.090262218E1
5.784663166E0,1.505444724E1,-5.524484432E0,1.143925881E1,1.969804437E1
5.794616167E0,1.407063917E1,-5.820348866E0,9.857554235E0,1.813920404E1
5.804570166E0,1.289299240E1,-5.834338329E0,8.306540523E0,1.640936843E1
5.814523167E0,1.180667212E1,-5.608650423E0,7.241566086E0,1.494305007E1
5.824476167E0,1.091463376E1,-5.474104822E0,7.059599565E0,1.410436102E1
5.834429166E0,9.668145379E0,-5.273658761E0,6.121706175E0,1.259999200E1
5.844382166E0,7.421213016E0,-4.591595965E0,4.372550204E0,9.760960579E0
5.854336166E0,4.753278787E0,-3.569713169E0,3.116636694E0,6.711924882E0
5.864289166E0,2.086076045E0,-2.342672333E0,1.790797502E0,3.612033031E0
5.874242167E0,-2.856002319E-1,-1.017471072E0,-1.343339324E-2,1.056879998E0
5.884195167E0,-2.068764778E0,3.749538732E-1,-2.415871287E0,3.202625827E0
5.894149167E0,-3.652072079E0,1.933747599E0,-5.097290365E0,6.561964592E0
5.904102167E0,-5.180965775E0,3.264986402E0,-7.264374320E0,9.501246067E0
5.914055166E0,-6.531732817E0,4.021164703E0,-8.886460939E0,1.173893041E1
5.924008166E0,-7.693928323E0,4.250150439E0,-1.033847837E1,1.356998330E1
5.933961167E0,-8.690520743E0,4.178208636E0,-1.171237524E1,1.517110121E1
5.943915166E0,-9.559680113E0,3.901628027E0,-1.252656961E1,1.623345716E1
5.953868167E0,-1.022930033E1,3.388413816E0,-1.212204286E1,1.621924340E1
5.963821167E0,-1.033209438E1,2.716858175E0,-1.131682280E1,1.556290367E1
5.973774166E0,-1.044245940E1,2.218411399E0,-1.060463544E1,1.504741175E1
5.983727166E0,-1.046951681E1,1.914705410E0,-9.792127985E0,1.446245655E1
5.993681166E0,-1.008955304E1,1.597591902E0,-8.915808699E0,1.355887256E1
6.003634166E0,-9.066437652E0,1.089334814E0,-7.726050003E0,1.196155469E1
6.013587167E0,-8.057778334E0,1.040746206E0,-6.522826338E0,1.041912702E1
6.023540167E0,-7.478343236E0,1.323025804E0,-5.912108052E0,9.624397979E0
6.033494167E0,-7.095173441E0,1.421539694E0,-5.496662795E0,9.087109724E0
6.043447167E0,-6.718488792E0,1.408086274E0,-5.084812991E0,8.542606262E0
6.053400166E0,-6.803209684E0,1.498564042E0,-5.098396073E0,8.632670427E0
6.063353166E0,-6.738700862E0,1.581209758E0,-4.812873609E0,8.430543635E0
6.073306167E0,-6.061106801E0,1.635862074E0,-4.064289088E0,7.478736937E0
6.083260166E0,-5.108429895E0,1.776853500E0,-3.691433195E0,6.548277895E0
6.093213167E0,-4.160630736E0,2.062416456E0,-3.415614771E0,5.764619157E0
6.103166167E0,-3.646433024E0,2.694252546E0,-3.186824332E0,5.541779489E0
6.113119166E0,-3.569029922E0,3.177397451E0,-3.296760757E0,5.805382040E0
6.123073166E0,-3.556963023E0,3.070646004E0,-2.984998913E0,5.566962488E0
6.133026166E0,-3.339848889E0,3.038863171E0,-2.577809340E0,5.199459680E0
6.142979166E0,-2.919023024E0,3.292955974E0,-2.066828181E0,4.861690363E0
6.152932167E0,-2.164804126E0,3.205517588E0,-1.295933608E0,4.079358262E0
6.162885166E0,-5.479981273E-1,2.712042992E0,-4.509869725E-1,2.803367330E0
6.172839167E0,8.678922790E-1,2.413045035E0,1.180962145E-1,2.567093700E0
6.182792166E0,2.008855961E0,1.744231446E0,9.999054515E-1,2.842121834E0
6.192745166E0,2.709588039E0,7.293150222E-1,2.365841340E0,3.670282413E0
6.202698166E0,2.843792163E0,-1.646964768E-1,3.606264406E0,4.595587206E0
6.212652166E0,3.042919677E0,-9.304145095E-1,4.665373501E0,5.647188790E0
6.222605166E0,4.013110163E0,-1.951100381E0,5.603337643E0,7.163046741E0
6.232558167E0,5.976649618E0,-3.639702002E0,6.836016072E0,9.782580797E0
6.242511166E0,8.690359944E0,-5.672627149E0,8.691736963E0,1.353688835E1
6.252464166E0,1.113039134E1,-6.995041627E0,1.009595925E1,1.657542192E1
6.262418166E0,1.263177389E1,-7.411744620E0,1.085488808E1,1.822976317E1
6.272371166E0,1.390395728E1,-7.962259389E0,1.098047692E1,1.942391505E1
6.282324167E0,1.521607831E1,-9.539447578E0,1.042880615E1,2.076752506E1
6.292277167E0,1.580222543E1,-1.082599933E1,9.854548767E0,2.154123305E1
6.302231167E0,1.584201106E1,-1.124552068E1,9.965601425E0,2.183447415E1
6.312184167E0,1.562252997E1,-1.124570194E1,1.066097336E1,2.200421796E1
6.322137166E0,1.503976839E1,-1.083259148E1,1.049647715E1,2.130060337E1
6.332090166E0,1.329021364E1,-9.958528633E0,9.329803262E0,1.904855113E1
6.342043167E0,1.038285172E1,-8.430446531E0,7.296218841E0,1.523518454E1
6.351997166E0,6.642459201E0,-6.178468605E0,4.965883548E0,1.034194072E1
6.361950167E0,2.675773006E0,-2.862944426E0,3.113340619E0,5.004907769E0
6.371903167E0,-5.275708795E-1,1.148457766E0,1.959053763E0,2.331346804E0
6.381856166E0,-2.527326234E0,4.315776079E0,8.314115006E-1,5.069965102E0
6.391809166E0,-3.531137041E0,6.290400100E0,-7.374905992E-1,7.251341573E0
6.401763166E0,-4.145044398E0,7.297211698E0,-2.310366467E0,8.704509455E0
6.411716166E0,-4.967130759E0,7.544365318E0,-3.900055710E0,9.838712851E0
6.421669167E0,-5.954244257E0,7.289806784E0,-5.036894474E0,1.067542100E1
6.431622167E0,-7.067043071E0,7.042723331E0,-5.711029322E0,1.149603869E1
6.441576167E0,-8.068251282E0,6.770852362E0,-6.057501993E0,1.215049179E1
6.451529167E0,-8.564821978E0,6.140514913E0,-5.726142036E0,1.199378179E1
6.461482166E0,-8.692778352E0,5.430976928E0,-4.936106018E0,1.137651302E1
6.471435166E0,-8.581856087E0,4.980919079E0,-4.008628272E0,1.070172460E1
6.481388167E0,-8.064848787E0,4.712607017E0,-3.069860138E0,9.832318756E0
6.491342166E0,-7.258566865E0,4.484184076E0,-2.096217456E0,8.785717238E0
6.501295167E0,-6.393826236E0,4.234275248E0,-1.397676330E0,7.795101021E0
6.511248167E0,-5.614248548E0,4.120197240E0,-1.028512954E0,7.039435414E0
6.521201166E0,-5.257210543E0,4.201829341E0,-8.693801031E-1,6.785974821E0
6.531155167E0,-5.449932432E0,4.247553690E0,-8.762368405E-1,6.965003005E0
6.541108166E0,-5.806238365E0,4.217844864E0,-9.197354472E-1,7.235228576E0
6.551061166E0,-6.104712996E0,4.258556396E0,-1.071867719E0,7.520088015E0
6.561014167E0,-6.375944865E0,4.355688880E0,-1.291704317E0,7.828997292E0
6.570967167E0,-6.540653914E0,4.467287377E0,-1.392973706E0,8.042212747E0
6.580921167E0,-6.269584013E0,4.484559759E0,-1.279444460E0,7.813829922E0
6.590874167E0,-5.395432874E0,4.197396567E0,-1.259190582E0,6.950855685E0
6.600827166E0,-4.828205009E0,4.097173828E0,-1.502466620E0,6.508133598E0
6.610780166E0,-4.637782245E0,4.102606769E0,-1.391552833E0,6.346402582E0
6.620734166E0,-4.576626801E0,4.021228730E0,-1.348801793E0,6.239796443E0
6.630687166E0,-4.667538140E0,4.052766564E0,-1.345049635E0,6.326135285E0
6.640640167E0,-4.537841050E0,4.511050570E0,-1.274268504E0,6.524211742E0
6.650593166E0,-3.894866599E0,4.525539678E0,-1.036900200E0,6.060169735E0
6.660546166E0,-2.780817651E0,3.540160756E0,-6.685104114E-1,4.551108783E0
6.670500166E0,-1.364744811E0,2.214909794E0,-6.425505280E-2,2.602399375E0
6.680453166E0,3.009222758E-1,6.690670663E-1,1.076896325E0,1.303039005E0
6.690406833E0,2.122585475E0,-1.177496501E0,2.349173852E0,3.377940925E0
6.700359833E0,4.405576447E0,-3.306326509E0,3.162547862E0,6.351583094E0
6.710313833E0,6.233454652E0,-5.045509762E0,3.908110542E0,8.921124013E0
6.720266833E0,8.312269040E0,-6.712050422E0,4.742927461E0,1.168934551E1
6.730219833E0,1.098510090E1,-8.773374034E0,6.100929848E0,1.532533454E1
6.740172833E0,1.324344995E1,-1.043227238E1,7.822638404E0,1.858534221E1
6.750125833E0,1.427086187E1,-1.078010570E1,9.118355665E0,2.007517341E1
6.760079833E0,1.484586887E1,-1.118392611E1,9.522769564E0,2.088451977E1
6.770032833E0,1.555879415E1,-1.273114264E1,9.435557758E0,2.220783237E1
6.779985833E0,1.607979159E1,-1.426485912E1,9.472794582E0,2.348999235E1
6.789938833E0,1.578165610E1,-1.469820914E1,9.597889329E0,2.360545489E1
6.799891833E0,1.484443280E1,-1.394457554E1,9.364362060E0,2.241650394E1
6.809845833E0,1.344441524E1,-1.239993062E1,8.581743820E0,2.020289354E1
6.819798833E0,1.129150435E1,-1.065987642E1,6.992900961E0,1.703031708E1
6.829751833E0,8.267965271E0,-8.585797110E0,5.191888958E0,1.300118736E1
6.839704833E0,5.075390788E0,-6.049555042E0,3.862144411E0,8.790498695E0
6.849658833E0,1.933122239E0,-3.387795180E0,2.417632468E0,4.589015638E0
6.859611833E0,-8.429790473E-1,-1.068042471E0,9.533814955E-1,1.661404427E0
6.869564833E0,-2.847627937E0,8.122434506E-1,-3.730169830E-1,2.984604824E0
6.879517833E0,-4.299883347E0,2.456629888E0,-1.744589295E0,5.250487502E0
6.889470833E0,-5.863689598E0,3.916710627E0,-3.327265096E0,7.797061681E0
6.899424833E0,-7.142935252E0,5.194120840E0,-4.712978023E0,1.001062322E1
6.909377833E0,-8.259201465E0,6.061800281E0,-6.157042068E0,1.195278204E1
6.919330833E0,-9.186167579E0,6.402132205E0,-7.433637764E0,1.343993832E1
6.929283833E0,-9.763978320E0,6.474924193E0,-8.063294013E0,1.422239875E1
6.939237833E0,-9.880195824E0,6.536364981E0,-8.222901950E0,1.442076465E1
6.949190833E0,-9.636128365E0,6.348865825E0,-8.162904255E0,1.413492388E1
6.959143833E0,-9.386593174E0,5.809729738E0,-7.206564653E0,1.318315839E1
6.969096833E0,-8.833653565E0,5.124664105E0,-5.678207147E0,1.168493277E1
6.979049833E0,-8.123808601E0,4.429628092E0,-4.515437443E0,1.029597234E1
6.989003833E0,-7.579650925E0,4.174649144E0,-3.445508368E0,9.313985803E0
6.998956833E0,-6.873382119E0,4.147347032E0,-2.816741774E0,8.507520401E0
7.008909833E0,-6.310480024E0,4.049490662E0,-2.672659656E0,7.960128290E0
7.018862833E0,-5.832563115E0,4.025890130E0,-2.504437601E0,7.516567802E0
7.028815833E0,-5.627936879E0,4.222383181E0,-2.264152413E0,7.391114895E0
7.038769833E0,-5.781284788E0,4.440540458E0,-2.270144347E0,7.635129908E0
7.048722833E0,-6.090237629E0,4.651826087E0,-2.157517618E0,7.961492486E0
7.058675833E0,-6.326460464E0,4.716967870E0,-1.840813415E0,8.103238977E0
7.068628833E0,-6.515904989E0,4.602479095E0,-1.584484345E0,8.133290987E0
7.078582833E0,-6.513826303E0,4.645544423E0,-1.451086844E0,8.131215723E0
7.088535833E0,-6.339464672E0,4.694060818E0,-1.366260117E0,8.005603412E0
7.098488833E0,-6.174738082E0,4.719923930E0,-1.342880902E0,7.887230274E0
7.108441833E0,-6.154258794E0,4.830578393E0,-1.419881131E0,7.951443349E0
7.118394833E0,-5.989112374E0,4.848467950E0,-1.310884354E0,7.816362726E0
7.128348833E0,-5.765797852E0,4.879437143E0,-9.963696402E-1,7.618798079E0
7.138301833E0,-5.276864204E0,5.032974501E0,-6.168122542E-1,7.318236503E0
7.148254833E0,-4.177933817E0,4.855345445E0,1.244421977E-1,6.406636889E0
7.158207833E0,-2.630500939E0,4.115960932E0,1.026241311E0,4.991376645E0
7.168161833E0,-1.044221499E0,3.109711252E0,1.363527421E0,3.552451215E0
7.178114833E0,4.424897987E-1,1.924181846E0,1.794930314E0,2.668341776E0
7.188067833E0,1.588112542E0,6.668819618E-1,2.804441571E0,3.291158690E0
7.198020833E0,2.845666196E0,-4.396743643E-1,4.208925229E0,5.099625597E0
7.207973833E0,4.589763740E0,-1.600275043E0,6.039929940E0,7.752906880E0
7.217927833E0,6.763048668E0,-3.459357206E0,8.388191627E0,1.131670174E1
7.227880833E0,9.199954728E0,-5.301252941E0,1.036792027E1,1.484035783E1
7.237833833E0,1.126873997E1,-6.540325885E0,1.220066219E1,1.784983252E1
7.247786833E0,1.321752339E1,-7.463145154E0,1.309464065E1,2.004672227E1
7.257739833E0,1.486035243E1,-8.817424618E0,1.269975245E1,2.144436437E1
7.267693833E0,1.623634728E1,-1.052992673E1,1.191397788E1,2.272534266E1
7.277646833E0,1.723718361E1,-1.246918855E1,1.109670319E1,2.399454070E1
7.287599833E0,1.739434858E1,-1.367099719E1,1.048576856E1,2.448286889E1
7.297552833E0,1.645216216E1,-1.340758129E1,9.867060639E0,2.340503710E1
7.307506833E0,1.459585947E1,-1.235374697E1,9.189390564E0,2.121553857E1
7.317459833E0,1.219475416E1,-1.082613732E1,8.310059962E0,1.830230518E1
7.327412833E0,9.721059757E0,-8.882209429E0,7.311010543E0,1.506132538E1
7.337365833E0,7.576654227E0,-6.801248528E0,6.357228513E0,1.200320895E1
7.347318833E0,5.596618608E0,-4.487273744E0,5.068497505E0,8.783361114E0
7.357272833E0,3.664786264E0,-1.832223563E0,3.694383408E0,5.516898614E0
7.367225833E0,2.322724557E0,8.057629815E-1,2.493996812E0,3.502045609E0
7.377178833E0,1.081261856E0,2.964035768E0,7.829465613E-1,3.250790758E0
7.387131833E0,-6.528498137E-1,4.682111741E0,-1.653865651E0,5.008358496E0
7.397085833E0,-2.588758251E0,6.083451351E0,-4.065760247E0,7.761472541E0
7.407038833E0,-4.555958063E0,7.056260805E0,-6.008207626E0,1.032696128E1
7.416991833E0,-6.332281367E0,7.400495161E0,-7.642673385E0,1.238045122E1
7.426944833E0,-7.781476344E0,7.193156987E0,-8.943495265E0,1.386646996E1
7.436897833E0,-8.829436553E0,6.705847696E0,-9.574584081E0,1.464923218E1
7.446851833E0,-9.445609122E0,6.057786752E0,-9.569413973E0,1.474754203E1
7.456804833E0,-9.825948865E0,5.470582459E0,-9.132146323E0,1.448698174E1
7.466757833E0,-9.718790452E0,4.987273833E0,-8.110027884E0,1.360515860E1
7.476710833E0,-9.227531367E0,4.340603941E0,-7.062533113E0,1.240433600E1
7.486663833E0,-8.604583045E0,3.420515030E0,-6.081035281E0,1.107780495E1
7.496617833E0,-8.016629723E0,2.608100548E0,-4.898995494E0,9.750317812E0
7.506570833E0,-7.636183560E0,2.048051309E0,-3.875831281E0,8.804991860E0
7.516523833E0,-7.250740367E0,1.611695825E0,-3.047769065E0,8.028679566E0
7.526476833E0,-7.208197196E0,1.609653977E0,-2.524169030E0,7.805159962E0
7.536430833E0,-7.494495585E0,1.886194240E0,-2.222153617E0,8.041340652E0
7.546383833E0,-8.128547185E0,2.240249580E0,-2.174200017E0,8.707418862E0
7.556336833E0,-8.766429296E0,2.513809518E0,-2.453243473E0,9.443935855E0
7.566289833E0,-9.207485942E0,2.671772341E0,-2.720043445E0,9.965681169E0
7.576242833E0,-9.383237457E0,2.959586914E0,-2.963299018E0,1.027547765E1
7.586196833E0,-8.929252033E0,3.116206339E0,-2.964154758E0,9.911029071E0
7.596149833E0,-7.733101745E0,2.891170982E0,-2.519523709E0,8.631786140E0
7.606102833E0,-6.296843147E0,2.635521358E0,-2.223643488E0,7.179191933E0
7.616055833E0,-5.522948368E0,2.876989438E0,-2.126844879E0,6.580539191E0
7.626008833E0,-4.941097201E0,3.304370323E0,-1.802933398E0,6.211591875E0
7.635962833E0,-4.450106503E0,3.567101803E0,-1.548944968E0,5.909897941E0
7.645915833E0,-3.869331223E0,3.784132321E0,-1.298421598E0,5.565723689E0
7.655868833E0,-3.008244519E0,3.686670054E0,-9.845348758E-1,4.859051357E0
7.665821833E0,-1.594890634E0,3.016537040E0,-5.062764895E-1,3.449563412E0
7.675775833E0,3.262687862E-1,1.749497448E0,6.674292612E-1,1.900698414E0
7.685728833E0,2.398471727E0,2.659261054E-1,2.149491438E0,3.231670893E0
7.695681416E0,4.537848651E0,-1.005246883E0,4.163408749E0,6.239916994E0
7.705634417E0,7.308806727E0,-2.243231075E0,6.891077548E0,1.029260371E1
7.715587417E0,1.055158131E1,-3.865675544E0,9.660699534E0,1.481919131E1
7.725541417E0,1.357837846E1,-5.794660878E0,1.095660625E1,1.838471313E1
7.735494417E0,1.609028734E1,-7.690596580E0,1.130009040E1,2.111242917E1
7.745447416E0,1.766235454E1,-9.089780906E0,1.110195633E1,2.275601721E1
7.755400416E0,1.830750357E1,-1.014217564E1,1.047043599E1,2.340210340E1
7.765354416E0,1.849521673E1,-1.070354811E1,1.001400468E1,2.359913714E1
7.775307416E0,1.838390797E1,-1.074660700E1,9.803088591E0,2.344265728E1
7.785260417E0,1.810236336E1,-1.033359711E1,9.649281676E0,2.296927133E1
7.795213417E0,1.740214409E1,-9.327711713E0,8.839475053E0,2.163277938E1
7.805166416E0,1.552221631E1,-7.704499505E0,7.438203855E0,1.885803246E1
7.815120417E0,1.229138875E1,-5.584013180E0,5.386932192E0,1.453542153E1
7.825073416E0,8.412645852E0,-3.590577496E0,3.190169524E0,9.687210051E0
7.835026416E0,4.238731996E0,-1.471282542E0,1.352766205E0,4.686309599E0
7.844979417E0,1.392806768E-1,7.010764790E-1,-4.349474752E-1,8.367118037E-1
7.854932417E0,-3.119877806E0,2.716107684E0,-2.129722586E0,4.652590329E0
7.864886417E0,-5.431609597E0,4.379592006E0,-3.633128269E0,7.866564051E0
7.874839416E0,-6.951150672E0,5.526570134E0,-4.977950447E0,1.018044517E1
7.884792416E0,-7.893124250E0,5.932144121E0,-6.388733895E0,1.176042793E1
7.894745416E0,-8.565183921E0,5.969300838E0,-7.384939814E0,1.278797342E1
7.904698417E0,-9.127767928E0,6.058542797E0,-8.188989269E0,1.367777882E1
7.914652416E0,-9.410723464E0,5.885652909E0,-9.168538808E0,1.439669164E1
7.924605417E0,-9.472344931E0,5.390056359E0,-9.586749213E0,1.451495045E1
7.934558416E0,-9.462430392E0,4.936177354E0,-8.994591744E0,1.395729617E1
7.944511416E0,-9.344584438E0,4.463786941E0,-7.922025282E0,1.303860179E1
7.954465416E0,-8.941868570E0,4.022484127E0,-6.649248987E0,1.184693649E1
7.964418416E0,-8.246662695E0,3.673300687E0,-5.206886482E0,1.042172013E1
7.974371416E0,-7.707370487E0,3.580741895E0,-4.049070539E0,9.413832619E0
7.984324417E0,-7.385982957E0,3.684433494E0,-3.279957321E0,8.881774284E0
7.994277416E0,-7.140164841E0,3.695972389E0,-2.868118919E0,8.536291466E0
8.004231417E0,-7.022891915E0,3.704990842E0,-2.738216007E0,8.399154415E0
8.014184416E0,-7.068645208E0,3.782840671E0,-2.769262675E0,8.482007096E0
8.024137416E0,-7.141372876E0,3.934845182E0,-2.744825699E0,8.603271545E0
8.034090417E0,-7.021652305E0,3.996328362E0,-2.418366879E0,8.433429897E0
8.044044416E0,-6.722501736E0,4.039119163E0,-2.448464836E0,8.215929239E0
8.053997417E0,-6.647055112E0,4.057916207E0,-2.604127657E0,8.211668921E0
8.063950417E0,-6.603761158E0,4.005030188E0,-2.495706831E0,8.116555971E0
8.073903416E0,-6.544095000E0,4.103523320E0,-2.477758510E0,8.111927653E0
8.083856416E0,-6.472510462E0,4.103165178E0,-2.346771231E0,8.014779559E0
8.093810416E0,-6.276012442E0,4.130209720E0,-2.065514311E0,7.791874862E0
8.103763416E0,-5.922756416E0,4.216073450E0,-1.652032842E0,7.455436367E0
8.113716417E0,-5.330658004E0,4.077423981E0,-1.076340547E0,6.797044214E0
8.123669417E0,-4.624590341E0,3.867794283E0,-3.385915008E-1,6.038320350E0
8.133622416E0,-3.596636381E0,3.631865855E0,4.044940066E-1,5.127363675E0
8.143576417E0,-1.850979384E0,2.797395384E0,1.457213849E0,3.657187145E0
8.153529416E0,3.449447930E-2,1.735355957E0,2.647595274E0,3.165819152E0
8.163482416E0,2.014443560E0,8.176889625E-1,3.242880127E0,3.904211779E0
8.173435417E0,4.221874473E0,-5.094433415E-1,3.786871449E0,5.694220926E0
8.183389416E0,6.444069605E0,-2.334041843E0,4.702411519E0,8.311826424E0
8.193342417E0,9.036647258E0,-4.516536135E0,5.890024872E0,1.169412183E1
8.203295417E0,1.148398767E1,-6.633753866E0,7.854313356E0,1.541359470E1
8.213248416E0,1.353018571E1,-8.545413315E0,9.513822740E0,1.861727255E1
8.223201416E0,1.564665324E1,-1.033626578E1,1.073647612E1,2.160851840E1
8.233155416E0,1.777934212E1,-1.183448031E1,1.136607506E1,2.419395777E1
8.243108416E0,1.942615895E1,-1.319909063E1,1.100357810E1,2.593588973E1
8.253061417E0,2.048225615E1,-1.414410242E1,1.037341899E1,2.696639152E1
8.263014417E0,2.070898544E1,-1.429490913E1,9.808410727E0,2.700761793E1
8.272967416E0,1.987747396E1,-1.338645062E1,9.308097228E0,2.570898102E1
8.282921417E0,1.832726833E1,-1.171197997E1,8.695017836E0,2.342354743E1
8.292874416E0,1.600831756E1,-1.010394070E1,7.343215252E0,2.030464624E1
8.302827416E0,1.289599904E1,-8.393599716E0,5.760117867E0,1.642979809E1
8.312780417E0,9.665392510E0,-6.292041414E0,4.386884945E0,1.233913923E1
8.322734416E0,6.231611025E0,-3.820740861E0,2.899309722E0,7.863652685E0
8.332687417E0,2.991470611E0,-1.149754971E0,1.505151369E0,3.540665694E0
8.342640417E0,1.870781565E-1,1.372331573E0,9.229508311E-2,1.388096022E0
8.352593416E0,-2.483752198E0,3.627325785E0,-1.615680994E0,4.683688974E0
8.362546416E0,-4.945558042E0,5.456719880E0,-3.343638470E0,8.087907913E0
8.372500416E0,-6.999729924E0,6.633386661E0,-4.679797413E0,1.071907372E1
8.382453416E0,-8.667928855E0,7.154559517E0,-5.653495059E0,1.258104602E1
8.392406417E0,-9.770452357E0,7.194492491E0,-6.406419969E0,1.372095763E1
8.402359416E0,-1.032966544E1,6.740030519E0,-7.020376443E0,1.419209939E1
8.412312416E0,-1.046164295E1,6.073958981E0,-7.057402766E0,1.400520920E1
8.422266416E0,-1.030877217E1,5.581983612E0,-6.572789626E0,1.343989912E1
8.432219416E0,-9.860599465E0,5.153761604E0,-5.984101310E0,1.263337441E1
8.442172416E0,-9.150777306E0,4.601782400E0,-5.249806799E0,1.150971755E1
8.452125417E0,-8.261774240E0,3.866533623E0,-4.443421966E0,1.014647696E1
8.462079416E0,-7.346343513E0,3.213599609E0,-3.663406906E0,8.815698249E0
8.472032417E0,-6.701841184E0,2.776179639E0,-2.927514351E0,7.822543635E0
8.481985416E0,-6.591393127E0,2.556273167E0,-2.338245991E0,7.446367583E0
8.491938416E0,-7.033298789E0,2.613993080E0,-2.105553120E0,7.793176863E0
8.501891416E0,-7.607624590E0,2.995330066E0,-1.841301365E0,8.380831989E0
8.511845416E0,-7.833170993E0,3.581925079E0,-1.612861467E0,8.762994762E0
8.521798417E0,-7.700046265E0,3.891487493E0,-1.909625203E0,8.836348556E0
8.531751417E0,-7.405348935E0,3.921694501E0,-2.469339104E0,8.735932476E0
8.541704416E0,-7.005421604E0,3.933467578E0,-2.852723785E0,8.525616226E0
8.551657416E0,-6.423561666E0,3.837870864E0,-3.220618315E0,8.146396724E0
8.561611416E0,-6.070895625E0,3.738915510E0,-3.373566273E0,7.887725419E0
8.571564416E0,-6.028048398E0,4.015001445E0,-3.582728194E0,8.080442154E0
8.581517417E0,-6.132317702E0,4.389317387E0,-3.660872138E0,8.382923853E0
8.591470417E0,-6.137494826E0,4.463403364E0,-3.654249582E0,8.422847044E0
8.601423416E0,-6.057751084E0,4.322098965E0,-3.682465613E0,8.302857379E0
8.611377417E0,-5.728533547E0,4.179359660E0,-3.572913058E0,7.940330691E0
8.621330416E0,-5.369782308E0,3.931544428E0,-3.424934355E0,7.484769801E0
8.631283416E0,-4.836741359E0,3.688475966E0,-3.266391781E0,6.904218796E0
8.641236417E0,-4.442846600E0,3.602554348E0,-2.759897482E0,6.350930472E0
8.651190416E0,-4.057956553E0,3.363690326E0,-1.899839888E0,5.602750717E0
8.661143417E0,-3.567986194E0,3.282518986E0,-1.384822980E0,5.042141515E0
8.671096417E0,-3.088326230E0,3.330083747E0,-1.206417414E0,4.699219046E0
8.681049416E0,-2.521469663E0,2.880921690E0,-7.696163714E-1,3.905102867E0
8.691002416E0,-2.224472038E0,2.333286090E0,-2.849435896E-1,3.236308495E0
8.700956792E0,-1.806093818E0,1.558849274E0,1.801410198E-2,2.385856334E0
8.710909791E0,-3.739557534E-1,-6.394895107E-2,2.752874976E-1,4.687382854E-1
8.720862791E0,1.582476996E0,-1.925889672E0,6.441836554E-1,2.574540163E0
8.730815792E0,3.975973327E0,-2.943264996E0,1.528331779E0,5.177544858E0
8.740768792E0,6.597881198E0,-3.157486804E0,3.386681578E0,8.060482078E0
8.750722792E0,9.194997459E0,-3.262239673E0,5.154962622E0,1.103466472E1
8.760675792E0,1.199906890E1,-4.061015232E0,5.984570841E0,1.401016015E1
8.770628791E0,1.448982373E1,-5.882734564E0,6.086209483E0,1.678104596E1
8.780581791E0,1.566164199E1,-7.755424075E0,6.196511943E0,1.854266412E1
8.790535791E0,1.569213405E1,-8.707280617E0,6.574806916E0,1.911250619E1
8.800488791E0,1.558848046E1,-9.314315157E0,7.178423758E0,1.952657056E1
8.810441792E0,1.562065184E1,-9.526723452E0,8.424242635E0,2.014276763E1
8.820394792E0,1.546006391E1,-9.282709787E0,9.813103702E0,2.052996058E1
8.830347791E0,1.481109080E1,-8.978924714E0,1.068912303E1,2.035305507E1
8.840301792E0,1.373810334E1,-8.531886951E0,1.087723380E1,1.948955601E1
8.850254791E0,1.258576215E1,-7.446817973E0,1.049144621E1,1.799797073E1
8.860207791E0,1.202733668E1,-6.511787379E0,9.502782027E0,1.665422075E1
8.870160792E0,1.195468386E1,-5.906839710E0,8.056911192E0,1.557944285E1
8.880113792E0,1.168501963E1,-4.998343781E0,6.436575814E0,1.424614448E1
8.890067792E0,1.091427708E1,-3.835884565E0,4.997386007E0,1.260195705E1
8.900020792E0,9.423604295E0,-2.686718701E0,3.454753693E0,1.039028866E1
8.909973791E0,7.253921837E0,-1.707317242E0,1.966444059E0,7.707218462E0
8.919926791E0,4.825739822E0,-7.641460088E-1,7.713319445E-1,4.946376141E0
8.929880791E0,2.431892658E0,1.808096489E-1,1.271038502E-2,2.438638059E0
8.939833791E0,2.535446262E-1,1.151400670E0,-2.330197299E-1,1.201793066E0
8.949786792E0,-1.580348024E0,2.168434955E0,-1.663065076E-1,2.688357842E0
8.959739792E0,-3.144541946E0,3.114924337E0,-7.042503476E-2,4.426720836E0
8.969692791E0,-4.532496695E0,3.785933848E0,1.471744180E-2,5.905678454E0
8.979646791E0,-5.728090328E0,4.290799697E0,-3.883662164E-2,7.157058693E0
8.989599791E0,-6.530365738E0,4.633833328E0,-1.114982164E-1,8.008153334E0
8.999552791E0,-7.125617554E0,4.709018873E0,-4.825730467E-1,8.554657270E0
9.009505792E0,-7.641689883E0,4.529172553E0,-1.115679152E0,8.952852521E0
9.019458791E0,-8.156049564E0,4.397803451E0,-1.707182610E0,9.422117180E0
9.029412792E0,-8.556683239E0,4.376645301E0,-2.020070336E0,9.821025217E0
9.039365791E0,-8.692093644E0,4.249962743E0,-2.435792166E0,9.977362312E0
9.049318791E0,-8.722209728E0,4.030028497E0,-2.939739417E0,1.004789232E1
9.059271791E0,-8.701573734E0,3.864903419E0,-3.204802181E0,1.004617444E1
9.069224792E0,-8.549281248E0,3.749519436E0,-3.469024700E0,9.959078182E0
9.079178791E0,-8.377676579E0,3.623474809E0,-3.715570209E0,9.854973188E0
9.089131792E0,-8.322773563E0,3.559603333E0,-3.763722907E0,9.803313001E0
9.099084791E0,-8.091001629E0,3.656359257E0,-3.562329597E0,9.566789562E0
9.109037791E0,-7.845924940E0,3.723687899E0,-3.468417467E0,9.351700886E0
9.118991791E0,-7.716215571E0,3.602787944E0,-3.542127175E0,9.223162615E0
9.128944791E0,-7.704193695E0,3.440132146E0,-3.454780591E0,9.117270348E0
9.138897792E0,-7.735782693E0,3.442041262E0,-3.425056854E0,9.133509532E0
9.148850792E0,-7.876829814E0,3.495720163E0,-3.445505152E0,9.280948935E0
9.158803791E0,-8.064869252E0,3.518570497E0,-3.173763406E0,9.353888419E0
9.168757792E0,-8.138313205E0,3.531221533E0,-2.853995847E0,9.319171617E0
9.178710791E0,-7.971382214E0,3.628976161E0,-2.312660914E0,9.058741794E0
9.188663791E0,-7.311056151E0,3.743470784E0,-1.771638223E0,8.402607782E0
9.198616792E0,-6.680421079E0,3.867344047E0,-1.558926457E0,7.874936664E0
9.208569792E0,-6.343688115E0,3.931223709E0,-1.439025207E0,7.600506056E0
9.218523792E0,-6.084316154E0,3.920494945E0,-1.433842528E0,7.378691488E0
9.228476792E0,-6.129311063E0,3.940136620E0,-1.758023273E0,7.495583801E0
9.238429791E0,-6.418658191E0,3.994933509E0,-2.220949675E0,7.879802293E0
9.248382791E0,-6.754609966E0,4.183644208E0,-2.583785779E0,8.354853895E0
9.258336791E0,-6.722207621E0,4.561544200E0,-2.531715154E0,8.509132882E0
9.268289791E0,-5.919376726E0,4.903611286E0,-2.003759820E0,7.943517979E0
9.278242792E0,-4.260932704E0,4.608675390E0,-1.584360384E0,6.473456124E0
9.288195792E0,-2.377614709E0,3.947366702E0,-1.309381619E0,4.790536067E0
9.298148791E0,-1.020523319E0,3.366969737E0,-1.434575184E0,3.799468254E0
9.308102792E0,-2.645104945E-1,2.759546649E0,-1.529898832E0,3.166331308E0
9.318055791E0,2.172006726E-2,2.109101211E0,-1.048549023E0,2.355469111E0
9.328008791E0,2.055840093E-1,1.714210379E0,-2.655583155E-1,1.746797993E0
9.337961792E0,1.224283581E0,1.103146522E0,4.562196457E-1,1.709952895E0
9.347914792E0,3.587761477E0,-6.649816167E-1,1.553465450E0,3.965789691E0
9.357868792E0,7.134859078E0,-3.128245171E0,3.214497449E0,8.427640581E0
9.367821792E0,1.080050664E1,-4.693765826E0,4.649080235E0,1.266081863E1
9.377774791E0,1.306809429E1,-4.988829192E0,6.049300103E0,1.523999793E1
9.387727791E0,1.384857713E1,-5.112118903E0,7.115114200E0,1.638724193E1
9.397680792E0,1.397326081E1,-6.059675987E0,7.639309482E0,1.703909447E1
9.407634791E0,1.407557773E1,-7.648032358E0,7.900681776E0,1.786155256E1
9.417587792E0,1.423879574E1,-8.932073314E0,8.170155972E0,1.868894557E1
9.427540792E0,1.464731848E1,-9.837651483E0,8.515094917E0,1.959158408E1
9.437493791E0,1.556613357E1,-1.065890812E1,8.430530146E0,2.066375269E1
9.447447792E0,1.620898348E1,-1.157395060E1,7.839406464E0,2.140429330E1
9.457400791E0,1.612372757E1,-1.179009175E1,7.417210012E0,2.130717857E1
9.467353791E0,1.566467904E1,-1.100293373E1,7.034326730E0,2.039432452E1
9.477306792E0,1.461677262E1,-9.424779586E0,6.533330276E0,1.857850685E1
9.487259792E0,1.352714867E1,-7.724511015E0,5.808963168E0,1.662515788E1
9.497213792E0,1.257311111E1,-6.362045449E0,4.639712703E0,1.483528494E1
9.507166791E0,1.145044103E1,-5.364191201E0,3.608670828E0,1.314951148E1
9.517119791E0,9.907098863E0,-4.387852952E0,2.745835806E0,1.117781176E1
9.527072791E0,7.999203267E0,-3.510548410E0,1.941392541E0,8.948754552E0
9.537025792E0,5.820074047E0,-2.672894422E0,1.311781901E0,6.537461148E0
9.546979791E0,3.513835714E0,-1.679633746E0,8.315521261E-1,3.982422615E0
9.556932792E0,1.188595101E0,-4.219777662E-1,4.831484127E-1,1.350650190E0
9.566885791E0,-9.563951504E-1,9.608086288E-1,3.960395175E-1,1.412335727E0
9.576838791E0,-3.084436662E0,2.408140391E0,3.354772738E-1,3.927522714E0
9.586792791E0,-5.204585602E0,4.011854474E0,2.551689827E-1,6.576305864E0
9.596745791E0,-7.148617576E0,5.664498934E0,3.167419177E-1,9.126313980E0
9.606698791E0,-8.517972917E0,6.852067848E0,1.088187298E-1,1.093245343E1
9.616651792E0,-9.255250677E0,7.224186991E0,-2.594482675E-1,1.174375818E1
9.626604791E0,-9.300408139E0,7.044573390E0,-8.661404532E-1,1.169930789E1
9.636558792E0,-9.046764110E0,6.530737621E0,-1.680168474E0,1.128350304E1
9.646511791E0,-8.808937969E0,6.219594412E0,-2.638510455E0,1.110146298E1
9.656464791E0,-8.695416031E0,6.043801382E0,-3.631040521E0,1.119474209E1
9.666417792E0,-8.478641036E0,5.650984265E0,-4.549964959E0,1.115899449E1
9.676370792E0,-8.322008162E0,5.208485695E0,-5.138594511E0,1.108103319E1
9.686324792E0,-8.299499305E0,4.885538127E0,-5.367681988E0,1.102552409E1
9.696276958E0,-8.335104756E0,4.598714073E0,-5.265879040E0,1.087895328E1
9.706229958E0,-8.286405635E0,4.180324451E0,-4.661736825E0,1.038611675E1
9.716182958E0,-8.213375666E0,3.786054593E0,-3.873397962E0,9.838544658E0
9.726135958E0,-8.221658247E0,3.563587626E0,-2.900842569E0,9.418583158E0
9.736089958E0,-8.220102303E0,3.477429488E0,-1.946407405E0,9.135157333E0
9.746042958E0,-8.006325760E0,3.510072446E0,-1.067967334E0,8.806952650E0
9.755995958E0,-7.563226097E0,3.661089655E0,-4.073854548E-1,8.412605385E0
9.765948958E0,-7.203468552E0,3.829935316E0,-1.065663823E-1,8.159026909E0
9.775901958E0,-6.795046971E0,3.951891862E0,-3.888135284E-2,7.860764873E0
9.785855958E0,-6.557038981E0,4.055072414E0,-1.937004206E-1,7.712061484E0
9.795808958E0,-6.586627062E0,4.080303734E0,-5.232535878E-1,7.765714966E0
9.805761958E0,-6.518634469E0,4.019633902E0,-7.630996495E-1,7.696257085E0
9.815714958E0,-6.600973206E0,3.912067353E0,-1.006985260E0,7.738936461E0
9.825668958E0,-6.655682094E0,3.865621165E0,-1.048049671E0,7.767852936E0
9.835621958E0,-6.469693274E0,4.042514641E0,-1.039409825E0,7.699300518E0
9.845574958E0,-6.140985029E0,4.104374675E0,-9.418920091E-1,7.446123096E0
9.855527958E0,-5.761783154E0,3.911840481E0,-8.337726063E-1,7.013973041E0
9.865480958E0,-5.555199271E0,3.824428115E0,-7.277283803E-1,6.783515161E0
9.875434958E0,-5.314914960E0,3.872263602E0,-5.041364086E-1,6.595217961E0
9.885387958E0,-4.755021842E0,3.558641759E0,-1.672122413E-1,5.941559039E0
9.895340958E0,-4.396247215E0,3.102430299E0,-1.489753604E-2,5.380732782E0
9.905293958E0,-4.056833303E0,2.882467402E0,8.124296844E-2,4.977259807E0
9.915246958E0,-3.210798501E0,2.673170410E0,4.428570038E-1,4.201331858E0
9.925200958E0,-2.293100224E0,2.308353563E0,9.150334087E-1,3.379954281E0
9.935153958E0,-9.500146687E-1,1.546607544E0,1.325412930E0,2.247496874E0
9.945106958E0,1.190630516E0,5.269212538E-1,1.648860435E0,2.100949254E0
9.955059958E0,3.984392733E0,-9.914579791E-1,2.350037486E0,4.730861503E0
9.965012958E0,7.112681758E0,-3.042811503E0,3.575224462E0,8.522392481E0
9.974966958E0,9.482835420E0,-4.431277884E0,4.921486809E0,1.156639199E1
9.984919958E0,1.087957269E1,-4.835187461E0,6.006592625E0,1.333504010E1
9.994872958E0,1.155330291E1,-4.810162255E0,6.790963275E0,1.423845677E1
1.000482596E1,1.179231253E1,-5.070132387E0,7.351085604E0,1.479200246E1
1.001477996E1,1.228531350E1,-5.855049752E0,7.359331348E0,1.547159634E1
1.002473296E1,1.330710742E1,-7.164215609E0,7.603285956E0,1.691789143E1
1.003468596E1,1.465049118E1,-8.431335307E0,8.130377364E0,1.875706115E1
1.004463896E1,1.619471978E1,-9.579127952E0,8.467489811E0,2.063315354E1
1.005459196E1,1.726886733E1,-1.046646690E1,8.571956751E0,2.193716369E1
1.006454596E1,1.757053922E1,-1.063536489E1,8.597368750E0,2.226543474E1
1.007449896E1,1.699169995E1,-9.885988076E0,8.502823366E0,2.141841807E1
1.008445196E1,1.524773280E1,-7.972537624E0,7.786387421E0,1.888604090E1
1.009440496E1,1.321159081E1,-6.232758833E0,6.956093323E0,1.617963685E1
1.010435796E1,1.115317911E1,-4.652848181E0,5.735235041E0,1.337667079E1
1.011431196E1,9.219614822E0,-3.327630840E0,4.806987802E0,1.091703056E1
1.012426496E1,7.486390175E0,-2.640865421E0,3.840664664E0,8.818781836E0
1.013421796E1,5.934038619E0,-2.030733903E0,2.759060746E0,6.851942113E0
1.014417096E1,4.901140838E0,-1.469669880E0,1.779688377E0,5.417416523E0
1.015412396E1,3.567346509E0,-7.993909782E-1,4.787051135E-1,3.687023953E0
1.016407796E1,2.189379973E0,4.070933864E-1,-2.325583845E-1,2.239016100E0
1.017403096E1,1.465430356E0,2.040916537E0,-2.588039044E-1,2.525827765E0
1.018398396E1,8.241855115E-1,3.315890800E0,-2.731874701E-1,3.427687989E0
1.019393696E1,-4.324577308E-1,4.269171723E0,4.316706955E-3,4.291021502E0
1.020389096E1,-2.249680554E0,5.056527085E0,3.820006451E-1,5.547562821E0
1.021384396E1,-4.260217005E0,5.640294385E0,2.602031431E-1,7.073194141E0
1.022379696E1,-5.985953708E0,5.967763020E0,-6.599614897E-1,8.478289121E0
1.023374996E1,-7.241969544E0,5.917154199E0,-1.575200720E0,9.483675131E0
1.024370296E1,-8.430769297E0,5.563509918E0,-2.223882639E0,1.034292838E1
1.025365696E1,-9.387453300E0,5.426798508E0,-2.948136604E0,1.123681142E1
1.026360996E1,-9.978078214E0,5.275560275E0,-3.805949160E0,1.191129003E1
1.027356296E1,-1.028801690E1,5.007629160E0,-4.816022627E0,1.241425452E1
1.028351596E1,-1.011363071E1,4.860953802E0,-5.785364975E0,1.262477112E1
1.029346896E1,-9.644493392E0,4.381343539E0,-6.240635033E0,1.229463093E1
1.030342296E1,-9.171922592E0,3.763835466E0,-5.960652221E0,1.156805932E1
1.031337596E1,-8.683975369E0,3.505301703E0,-5.455774385E0,1.083808297E1
1.032332896E1,-8.286130232E0,3.403262235E0,-5.006870191E0,1.026210978E1
1.033328196E1,-7.810928185E0,3.183060772E0,-4.092514767E0,9.375028112E0
1.034323496E1,-7.273246300E0,3.250350237E0,-3.174618854E0,8.575726982E0
1.035318896E1,-6.723840163E0,3.395163842E0,-2.546478204E0,7.951208417E0
1.036314196E1,-6.152808684E0,3.326711950E0,-2.339283872E0,7.375385829E0
1.037309496E1,-5.951563894E0,3.213454598E0,-2.629911540E0,7.256985458E0
1.038304796E1,-5.935349565E0,3.174359530E0,-2.854235290E0,7.311059566E0
1.039300096E1,-6.102727867E0,3.275145355E0,-3.119928384E0,7.596302892E0
1.040295496E1,-6.417536110E0,3.152735065E0,-3.153050522E0,7.814488832E0
1.041290796E1,-6.869236443E0,2.919895721E0,-2.824700127E0,7.980672349E0
1.042286096E1,-7.418106390E0,2.908775487E0,-2.582311111E0,8.376013844E0
1.043281396E1,-7.741408884E0,2.983180721E0,-2.193429755E0,8.581370101E0
1.044276796E1,-7.772287445E0,3.031826632E0,-1.728656217E0,8.519898894E0
1.045272096E1,-7.763120180E0,3.099323381E0,-1.352794856E0,8.467697106E0
1.046267396E1,-7.675318975E0,3.199494371E0,-8.989006484E-1,8.363928979E0
1.047262696E1,-7.180785449E0,3.377089221E0,-3.839416283E-1,7.944546711E0
1.048257996E1,-6.774216265E0,3.641904355E0,-2.265158719E-1,7.694464424E0
1.049253396E1,-6.242579232E0,3.634047159E0,-1.425858155E-1,7.224709332E0
1.050248696E1,-5.723618377E0,3.520465288E0,-3.548031986E-2,6.719727824E0
1.051243996E1,-5.069514336E0,3.504200380E0,-2.792340758E-1,6.169065373E0
1.052239296E1,-4.506699949E0,3.371255746E0,-4.814848799E-1,5.648675723E0
1.053234596E1,-3.889834485E0,2.999412592E0,-5.141298848E-1,4.938787073E0
1.054229996E1,-2.753743873E0,2.660758526E0,-2.153956372E-1,3.835249213E0
1.055225296E1,-6.359782577E-1,1.695182370E0,6.971050501E-1,1.940120373E0
1.056220596E1,2.392507567E0,-2.622590241E-1,1.607114239E0,2.894078166E0
1.057215896E1,6.037491651E0,-2.405472891E0,2.731482646E0,7.049723591E0
1.058211196E1,9.853999128E0,-4.152165722E0,4.613727969E0,1.164595487E1
1.059206596E1,1.269031621E1,-4.821321959E0,6.918379952E0,1.523657613E1
1.060201896E1,1.469967679E1,-4.708796971E0,8.598072170E0,1.766861940E1
1.061197196E1,1.641932420E1,-5.627981903E0,9.214463425E0,1.965132880E1
1.062192496E1,1.761388463E1,-7.538180718E0,9.103905441E0,2.121212376E1
1.063187896E1,1.788695077E1,-9.194163646E0,8.524997177E0,2.184379156E1
1.064183196E1,1.766013143E1,-9.771324177E0,8.387097613E0,2.185640466E1
1.065178496E1,1.752895616E1,-9.752831773E0,8.787880976E0,2.189997451E1
1.066173796E1,1.772092025E1,-1.008381458E1,9.245975239E0,2.238754987E1
1.067169096E1,1.778099454E1,-1.061185441E1,9.093623697E0,2.261568511E1
1.068164496E1,1.744544740E1,-1.045026076E1,8.588655814E0,2.207524843E1
1.069159796E1,1.675555547E1,-9.748385550E0,7.723721641E0,2.086709218E1
1.070155096E1,1.551130072E1,-8.936033633E0,6.378621721E0,1.900368286E1
1.071150396E1,1.333824501E1,-7.741555064E0,4.928126907E0,1.619033321E1
1.072145696E1,1.074092117E1,-5.856737258E0,3.573686937E0,1.274519506E1
1.073141096E1,8.186337556E0,-3.919022616E0,1.876360686E0,9.267987391E0
1.074136396E1,5.688356743E0,-1.971875246E0,6.588964194E-2,6.020800268E0
1.075131696E1,3.381854117E0,-1.171606600E-2,-1.024580117E0,3.533672162E0
1.076126996E1,1.171635836E0,1.736758412E0,-1.878964158E0,2.814172458E0
1.077122296E1,-8.963997942E-1,3.112509437E0,-2.804817840E0,4.284652926E0
1.078117696E1,-2.721295919E0,4.132688355E0,-3.316306829E0,5.956715160E0
1.079112996E1,-4.251866596E0,4.630483458E0,-3.573398669E0,7.231108121E0
1.080108296E1,-5.871992059E0,4.822382936E0,-3.543879586E0,8.384196470E0
1.081103596E1,-7.372433204E0,4.960994691E0,-3.234384999E0,9.456504957E0
1.082098896E1,-8.639464025E0,5.019810079E0,-2.941278404E0,1.041585093E1
1.083094296E1,-9.464678646E0,4.930665768E0,-2.786402326E0,1.102976177E1
1.084089596E1,-9.729211945E0,4.657255812E0,-2.847868842E0,1.115607250E1
1.085084896E1,-9.713373007E0,4.453891405E0,-3.325752422E0,1.119139817E1
1.086080196E1,-9.492672776E0,4.316515459E0,-3.625755515E0,1.104034624E1
1.087075596E1,-9.153721964E0,4.221777702E0,-3.733886612E0,1.074969497E1
1.088070896E1,-8.627655573E0,3.986198646E0,-4.136532022E0,1.036518777E1
1.089066196E1,-8.275963093E0,3.678070261E0,-4.607589854E0,1.016118351E1
1.090061496E1,-8.093334083E0,3.481932136E0,-4.908689008E0,1.008568965E1
1.091056796E1,-8.169554878E0,3.485668507E0,-5.116109043E0,1.025017481E1
1.092052196E1,-8.273580353E0,3.412309047E0,-5.323712096E0,1.041335178E1
1.093047496E1,-8.368777117E0,3.187526290E0,-5.451246886E0,1.048393280E1
1.094042796E1,-8.355304547E0,3.008205635E0,-5.120843534E0,1.025102208E1
1.095038096E1,-8.207270588E0,3.106702859E0,-4.559119653E0,9.889209532E0
1.096033396E1,-7.990227206E0,3.182650589E0,-4.164841901E0,9.556092488E0
1.097028796E1,-7.901952960E0,3.024596550E0,-3.722591838E0,9.243740307E0
1.098024096E1,-7.848128756E0,2.873676698E0,-3.145361141E0,8.929974212E0
1.099019396E1,-7.724562471E0,2.962195064E0,-2.892782475E0,8.764225888E0
1.100014696E1,-7.691432732E0,3.308770646E0,-2.959042830E0,8.880429895E0
1.101009996E1,-7.639314744E0,3.594754162E0,-3.266601403E0,9.052738369E0
1.102005396E1,-7.519991784E0,3.602663106E0,-3.569505593E0,9.070326789E0
1.103000696E1,-7.215125561E0,3.542868310E0,-3.767242931E0,8.877053116E0
1.103995996E1,-6.841966199E0,3.477528598E0,-3.947767528E0,8.630792262E0
1.104991296E1,-6.330983285E0,3.420289327E0,-3.904646652E0,8.186940449E0
1.105986696E1,-5.782440782E0,3.456358754E0,-3.750831551E0,7.710497686E0
1.106981996E1,-5.269023673E0,3.593791418E0,-3.488507038E0,7.269637445E0
1.107977296E1,-4.591476390E0,3.850150017E0,-2.527917095E0,6.503512546E0
1.108972596E1,-3.706568713E0,4.158026386E0,-1.507540249E0,5.770659638E0
1.109967896E1,-2.715230602E0,4.048628490E0,-8.195030612E-1,4.943223153E0
1.110963296E1,-1.429892734E0,3.395849720E0,-2.292207938E-1,3.691738171E0
1.111958596E1,4.374097377E-1,2.144091242E0,7.053823686E-1,2.299134363E0
1.112953896E1,3.385127388E0,-1.291989076E-1,2.059123304E0,3.964311867E0
1.113949196E1,6.748731176E0,-2.729022430E0,3.789016793E0,8.206679241E0
1.114944496E1,9.905939945E0,-4.398962077E0,5.986778165E0,1.238224642E1
1.115939896E1,1.239377935E1,-5.080824021E0,8.386826302E0,1.580377786E1
1.116935196E1,1.431940429E1,-5.297537620E0,1.062257002E1,1.859968381E1
1.117930496E1,1.655219750E1,-6.499494778E0,1.283813265E1,2.193254031E1
1.118925796E1,1.849559212E1,-8.650909950E0,1.412270629E1,2.482692095E1
1.119921096E1,1.905967536E1,-1.014543254E1,1.421517533E1,2.585096199E1
1.120916496E1,1.805967635E1,-1.020918357E1,1.358336964E1,2.479692057E1
1.121911796E1,1.654224554E1,-9.692969733E0,1.299982220E1,2.316451870E1
1.122907096E1,1.562754220E1,-9.460725344E0,1.279632740E1,2.230406676E1
1.123902396E1,1.494571242E1,-9.418272804E0,1.234019546E1,2.154898156E1
1.124897696E1,1.386594920E1,-8.085193005E0,1.181241525E1,1.992907543E1
1.125893096E1,1.287222426E1,-5.929492409E0,1.073164281E1,1.777698498E1
1.126888396E1,1.179560919E1,-4.898582096E0,8.821653909E0,1.552269565E1
1.127883696E1,9.817589686E0,-3.775740982E0,6.700895689E0,1.247169957E1
1.128878996E1,7.392876239E0,-2.265446987E0,4.588649261E0,8.991249701E0
1.129874396E1,4.863868931E0,-9.074488391E-1,2.221035630E0,5.423438360E0
1.130869696E1,2.350978888E0,4.052507825E-1,3.223277628E-2,2.385868580E0
1.131864996E1,-1.306881934E-1,1.466332289E0,-1.939099848E0,2.434608389E0
1.132860296E1,-2.341216961E0,2.304142836E0,-3.382772130E0,4.715243191E0
1.133855596E1,-4.598421713E0,3.407720445E0,-3.958369115E0,6.958931450E0
1.134850996E1,-6.402824516E0,4.232540964E0,-4.030598601E0,8.669272742E0
1.135846296E1,-7.312184663E0,4.645828598E0,-3.931350886E0,9.513531821E0
1.136841596E1,-7.934250056E0,5.350720970E0,-4.455373090E0,1.055617773E1
1.137836896E1,-8.061566160E0,5.601102837E0,-5.317688295E0,1.116418429E1
1.138832196E1,-7.615579727E0,5.217735990E0,-6.500040908E0,1.129036559E1
1.139827596E1,-7.131841915E0,4.734481743E0,-7.774462609E0,1.156376908E1
1.140822896E1,-6.726329323E0,4.339077818E0,-8.861530166E0,1.194143289E1
1.141818196E1,-6.204187583E0,3.858914993E0,-9.597656609E0,1.206226268E1
1.142813496E1,-5.603110771E0,3.527842135E0,-1.010427048E1,1.208043056E1
1.143808796E1,-5.142566525E0,3.383912337E0,-1.034877414E1,1.204134459E1
1.144804196E1,-4.905921521E0,3.089532511E0,-1.046623535E1,1.196475489E1
1.145799496E1,-5.073671706E0,2.683089335E0,-1.080377874E1,1.223367271E1
1.146794796E1,-5.711195383E0,2.274715993E0,-1.054376241E1,1.220504041E1
1.147790096E1,-6.445919665E0,2.138175614E0,-1.001758317E1,1.210262979E1
1.148785396E1,-6.947359922E0,2.014327493E0,-9.424832795E0,1.188069015E1
1.149780796E1,-7.250824567E0,2.045976132E0,-8.714168637E0,1.151942751E1
1.150776096E1,-7.268871413E0,2.267453751E0,-8.080273742E0,1.110264211E1
1.151771396E1,-7.065469000E0,2.323598862E0,-7.500816425E0,1.056324812E1
1.152766696E1,-6.633448057E0,2.139351196E0,-7.080343148E0,9.935326655E0
1.153761996E1,-6.045084261E0,2.086946403E0,-6.582174407E0,9.177331253E0
1.154757396E1,-5.505087463E0,2.331364257E0,-6.292834296E0,8.679919974E0
1.155752696E1,-5.207445475E0,2.422449989E0,-6.227120363E0,8.471291540E0
1.156747996E1,-5.177941595E0,2.289795377E0,-6.185670036E0,8.385508680E0
1.157743296E1,-5.187131079E0,2.257268632E0,-6.301041448E0,8.467863593E0
1.158738696E1,-5.273152392E0,2.334901091E0,-6.431522065E0,8.638424355E0
1.159733996E1,-5.263189906E0,2.485397020E0,-6.315250767E0,8.588408385E0
1.160729296E1,-5.072316322E0,2.689746097E0,-6.107062408E0,8.382084358E0
1.161724596E1,-4.586280554E0,2.779013785E0,-5.651529810E0,7.790807155E0
1.162719896E1,-3.600110212E0,2.701172141E0,-4.877556678E0,6.636842896E0
1.163715296E1,-2.263985767E0,2.356439749E0,-4.016782215E0,5.178125066E0
1.164710596E1,-9.498404217E-1,1.944056240E0,-2.715338776E0,3.471975829E0
1.165705896E1,2.449492192E-1,1.376942688E0,-1.370420119E0,1.958066032E0
1.166701196E1,1.456668304E0,2.814083630E-1,1.990345430E-1,1.496892769E0
1.167696496E1,2.926625574E0,-1.339395669E0,1.956534491E0,3.766582698E0
1.168691896E1,4.846888617E0,-2.745696934E0,4.044103330E0,6.883745540E0
1.169687229E1,7.394450895E0,-3.443671758E0,6.883370333E0,1.067321724E1
1.170682529E1,1.142064362E1,-4.300520108E0,1.030446044E1,1.597208436E1
1.171677829E1,1.723797415E1,-5.988025376E0,1.366570546E1,2.279815138E1
1.172673229E1,2.204519584E1,-7.672793562E0,1.629531996E1,2.846752313E1
1.173668529E1,2.414564668E1,-8.967368862E0,1.701583024E1,3.087012207E1
1.174663829E1,2.322165797E1,-9.533182286E0,1.590998845E1,2.971960120E1
1.175659129E1,2.021689313E1,-9.128814579E0,1.439813938E1,2.644549945E1
1.176654429E1,1.717164568E1,-8.597189825E0,1.334861914E1,2.338723415E1
1.177649829E1,1.536986827E1,-8.290159548E0,1.321874078E1,2.190193379E1
1.178645129E1,1.457767931E1,-8.012849498E0,1.356504915E1,2.146450674E1
1.179640429E1,1.370778553E1,-6.956807853E0,1.358042382E1,2.051166670E1
1.180635729E1,1.261159164E1,-5.259831850E0,1.255893161E1,1.855922515E1
1.181631029E1,1.140269267E1,-3.998466981E0,1.044639926E1,1.597298957E1
1.182626429E1,9.846271448E0,-3.278141468E0,7.732828680E0,1.294186665E1
1.183621729E1,7.917432879E0,-2.381007556E0,4.969628105E0,9.646353916E0
1.184617029E1,5.602385716E0,-1.332742707E0,2.072128682E0,6.120183503E0
1.185612329E1,2.656750259E0,-9.599198520E-2,-2.468893254E-1,2.669923359E0
1.186607629E1,-8.715000111E-1,1.461985323E0,-1.678961901E0,2.390779458E0
1.187603029E1,-4.082182152E0,3.358791237E0,-2.413210219E0,5.811133560E0
1.188598329E1,-6.456361622E0,4.804690431E0,-3.139781143E0,8.638743031E0
1.189593629E1,-7.983728610E0,5.306432989E0,-3.894406423E0,1.034720034E1
1.190588929E1,-8.866037784E0,5.422143540E0,-4.359237848E0,1.126983679E1
1.191584229E1,-9.249339727E0,5.601202240E0,-4.299331369E0,1.163649441E1
1.192579629E1,-9.614263287E0,5.677392045E0,-4.724749053E0,1.212394707E1
1.193574929E1,-9.779668154E0,5.462909743E0,-5.510096773E0,1.248384790E1
1.194570229E1,-9.692190884E0,5.054267721E0,-6.456807765E0,1.269545402E1
1.195565529E1,-9.490708696E0,4.610833012E0,-7.237934965E0,1.279535209E1
1.196560829E1,-9.071459241E0,4.348104749E0,-7.518667974E0,1.255897113E1
1.197556229E1,-8.492933970E0,4.054339465E0,-7.562785801E0,1.207324832E1
1.198551529E1,-7.927220533E0,3.512858937E0,-7.267683844E0,1.131371874E1
1.199546829E1,-7.492803401E0,3.059570793E0,-6.650548823E0,1.047534610E1
1.200542129E1,-7.224889242E0,2.580962158E0,-5.751100876E0,9.588302848E0
1.201537529E1,-7.066772929E0,2.041684861E0,-4.683989866E0,8.720522793E0
1.202532829E1,-6.903260806E0,1.732750438E0,-3.540869147E0,7.949540122E0
1.203528129E1,-6.912337439E0,1.638885962E0,-2.781287767E0,7.629018135E0
1.204523429E1,-7.111346839E0,1.627507280E0,-2.330247585E0,7.658334520E0
1.205518729E1,-7.433131396E0,1.752922747E0,-2.038811831E0,7.904488230E0
1.206514129E1,-7.657794870E0,1.972992064E0,-2.271685381E0,8.227701649E0
1.207509429E1,-7.687536147E0,2.241783597E0,-2.524210253E0,8.396156449E0
1.208504729E1,-7.598741500E0,2.694285876E0,-2.627141129E0,8.479499942E0
1.209500029E1,-7.481693106E0,3.090353167E0,-2.968001642E0,8.621777553E0
1.210495329E1,-7.284833143E0,3.314411747E0,-3.421157346E0,8.703932257E0
1.211490729E1,-7.042771863E0,3.443041720E0,-3.935771381E0,8.771856598E0
1.212486029E1,-6.742158905E0,3.461231531E0,-4.378809063E0,8.752759521E0
1.213481329E1,-6.467067289E0,3.428173713E0,-4.566987666E0,8.627439404E0
1.214476629E1,-5.961231095E0,3.399874358E0,-4.666096802E0,8.298667434E0
1.215471929E1,-5.566690219E0,3.482786707E0,-4.960944405E0,8.229751675E0
1.216467329E1,-5.248618644E0,3.639799942E0,-4.705014115E0,7.933051060E0
1.217462629E1,-4.950888948E0,3.956375799E0,-4.288844388E0,7.652345851E0
1.218457929E1,-4.557766607E0,4.275372403E0,-4.012339500E0,7.426366130E0
1.219453229E1,-3.974278804E0,4.149420747E0,-3.599422579E0,6.780002024E0
1.220448529E1,-3.033389300E0,3.537802282E0,-3.034252934E0,5.560951942E0
1.221443929E1,-1.758025028E0,2.842517178E0,-2.200646389E0,4.001674703E0
1.222439229E1,-2.255545896E-1,2.192565244E0,-1.023337584E0,2.430110498E0
1.223434529E1,1.644021864E0,1.055115885E0,5.063975269E-1,2.018047540E0
1.224429829E1,3.960961186E0,-7.213861978E-1,2.788448267E0,4.897453961E0
1.225425129E1,6.554657410E0,-2.095034272E0,5.632778959E0,8.892744299E0
1.226420529E1,8.755702579E0,-2.395896321E0,8.272458272E0,1.228153951E1
1.227415829E1,1.120499012E1,-2.855145117E0,1.094595963E1,1.592223884E1
1.228411129E1,1.434362228E1,-3.878343537E0,1.359178028E1,2.013746608E1
1.229406429E1,1.763026502E1,-5.658935308E0,1.483200746E1,2.372421208E1
1.230401829E1,2.025782832E1,-7.853594733E0,1.443676141E1,2.608598548E1
1.231397129E1,2.066833092E1,-8.789969602E0,1.313257504E1,2.601745560E1
1.232392429E1,1.875712873E1,-7.975035555E0,1.165536489E1,2.347932283E1
1.233387729E1,1.645880577E1,-7.434117821E0,1.088137246E1,2.108465465E1
1.234383029E1,1.489081876E1,-7.408115838E0,1.066589087E1,1.975798298E1
1.235378429E1,1.379094112E1,-7.272044697E0,1.089071046E1,1.901789330E1
1.236373729E1,1.289155749E1,-6.669747571E0,1.117063071E1,1.831558838E1
1.237369029E1,1.240456161E1,-5.655013581E0,1.071265456E1,1.733820334E1
1.238364329E1,1.237815325E1,-4.993303481E0,9.285438682E0,1.625949350E1
1.239359629E1,1.235582156E1,-4.839649179E0,7.071295751E0,1.503634777E1
1.240355029E1,1.163457921E1,-4.067626386E0,4.649873702E0,1.317309163E1
1.241350329E1,9.791207049E0,-2.750878152E0,2.785510626E0,1.054486299E1
1.242345629E1,7.385281291E0,-1.462528091E0,1.454898351E0,7.667991743E0
1.243340929E1,4.631050345E0,-3.969108988E-1,2.545269585E-1,4.654991894E0
1.244336229E1,1.685154687E0,3.347856943E-1,-7.935566264E-1,1.892500964E0
1.245331629E1,-1.268342936E0,1.142996174E0,-1.595147327E0,2.336584912E0
1.246326929E1,-3.969623251E0,1.943643865E0,-2.081434525E0,4.885491778E0
1.247322229E1,-6.124856654E0,2.782207534E0,-2.119178887E0,7.053046643E0
1.248317529E1,-7.693034284E0,3.509114088E0,-2.613763869E0,8.850334442E0
1.249312829E1,-8.692068501E0,3.793750114E0,-3.387683206E0,1.007079899E1
1.250308229E1,-9.116557061E0,3.772179735E0,-4.283262051E0,1.075580245E1
1.251303529E1,-9.228377459E0,3.590757006E0,-5.378335031E0,1.126867224E1
1.252298829E1,-9.162150725E0,3.374622573E0,-6.484776167E0,1.172115205E1
1.253294129E1,-9.147664248E0,3.178343530E0,-7.443440621E0,1.221418999E1
1.254289529E1,-9.148451868E0,2.974855748E0,-8.235161222E0,1.266340470E1
1.255284829E1,-9.081686021E0,2.839973639E0,-8.828883991E0,1.298043388E1
1.256280129E1,-8.844272109E0,2.658164116E0,-9.037854123E0,1.292167918E1
1.257275429E1,-8.498754873E0,2.367843866E0,-8.943380660E0,1.256262618E1
1.258270729E1,-8.089419957E0,1.896291066E0,-8.574902578E0,1.193999955E1
1.259266129E1,-7.692979905E0,1.534760061E0,-7.811973082E0,1.107087854E1
1.260261429E1,-7.516169459E0,1.412280920E0,-6.929728228E0,1.032029428E1
1.261256729E1,-7.427850775E0,1.362388383E0,-6.011557496E0,9.652351670E0
1.262252029E1,-7.326608575E0,1.410263631E0,-5.175302162E0,9.080296756E0
1.263247329E1,-7.307546652E0,1.488509024E0,-4.435328250E0,8.676867745E0
1.264242729E1,-7.455372450E0,1.586669157E0,-3.939763275E0,8.580316547E0
1.265238029E1,-7.646532547E0,1.673587725E0,-3.700939014E0,8.658366212E0
1.266233329E1,-7.721102673E0,1.787035842E0,-3.743217891E0,8.764736378E0
1.267228629E1,-7.814296766E0,1.916684546E0,-3.678265851E0,8.846838603E0
1.268223929E1,-7.929859382E0,2.008834765E0,-3.621448456E0,8.946115126E0
1.269219329E1,-7.867719852E0,2.061467892E0,-3.721783168E0,8.944402467E0
1.270215029E1,-7.724005816E0,2.119051564E0,-3.889426349E0,8.903835281E0
1.271210329E1,-7.410744161E0,2.154462156E0,-4.015819178E0,8.699864359E0
1.272205629E1,-7.071597467E0,2.237004083E0,-3.989612542E0,8.421917017E0
1.273200929E1,-6.448005366E0,2.256201662E0,-3.693556319E0,7.765924119E0
1.274196329E1,-5.884013935E0,2.404670507E0,-3.574380124E0,7.292479243E0
1.275191629E1,-5.611140168E0,2.613744573E0,-3.437751160E0,7.080585266E0
1.276186929E1,-5.250414909E0,2.623090178E0,-3.156038741E0,6.663935724E0
1.277182229E1,-4.690011329E0,2.599206641E0,-2.920752046E0,6.105970352E0
1.278177529E1,-3.823074485E0,2.573449656E0,-2.452930355E0,5.220671315E0
1.279172929E1,-2.891052868E0,2.411728242E0,-1.852094448E0,4.195816208E0
1.280168229E1,-1.848715927E0,2.181465475E0,-1.225774621E0,3.111119673E0
1.281163529E1,-4.142769831E-1,1.661231097E0,-2.150383723E-1,1.725559526E0
1.282158829E1,1.174600375E0,4.669542566E-1,9.514916754E-1,1.582108949E0
1.283154129E1,3.203618120E0,-1.252377114E0,2.509934276E0,4.258096707E0
1.284149529E1,5.784135305E0,-2.741481384E0,4.449798939E0,7.795681626E0
1.285144829E1,8.672331224E0,-3.561124779E0,7.355611349E0,1.191620564E1
1.286140129E1,1.159199510E1,-3.919679551E0,1.078302112E1,1.630986765E1
1.287135429E1,1.431370208E1,-4.455769531E0,1.310456220E1,1.991144143E1
1.288130729E1,1.611641855E1,-5.718058845E0,1.410171479E1,2.216514163E1
1.289126129E1,1.672681641E1,-7.300488478E0,1.450483236E1,2.331252198E1
1.290121429E1,1.623336871E1,-7.844347361E0,1.447563370E1,2.312141899E1
1.291116729E1,1.516854279E1,-7.122700378E0,1.434262709E1,2.205739112E1
1.292112029E1,1.441981735E1,-6.166071339E0,1.420044268E1,2.115665712E1
1.293107429E1,1.416936356E1,-5.851520957E0,1.367758466E1,2.054476779E1
1.294102729E1,1.375731261E1,-5.340518163E0,1.318283420E1,1.978817582E1
1.295098029E1,1.337831715E1,-4.478589460E0,1.228044744E1,1.870418463E1
1.296093329E1,1.255989640E1,-3.582957990E0,1.095440184E1,1.704662739E1
1.297088629E1,1.113538837E1,-2.610095910E0,9.551025065E0,1.490072329E1
1.298084029E1,9.518250836E0,-1.578239518E0,7.961773485E0,1.250910772E1
1.299079329E1,7.744816056E0,-6.945533252E-1,6.118565050E0,9.894514558E0
1.300074629E1,5.599121216E0,1.244113536E-1,4.389968475E0,7.116000266E0
1.301069929E1,3.332443390E0,1.171367157E0,2.846761379E0,4.536665110E0
1.302065229E1,1.409052672E0,2.390704578E0,1.430486811E0,3.122049060E0
1.303060629E1,-3.688201439E-1,3.205465840E0,3.150181586E-1,3.241955581E0
1.304055929E1,-2.148581026E0,3.690726852E0,-6.462810516E-1,4.319206445E0
1.305051229E1,-3.922364885E0,4.126875930E0,-1.335185382E0,5.847971548E0
1.306046529E1,-5.442819294E0,4.606478299E0,-2.206872504E0,7.464195230E0
1.307041829E1,-6.687629526E0,4.756971011E0,-2.982437540E0,8.732015550E0
1.308037229E1,-7.855877486E0,4.808004048E0,-3.719988658E0,9.933278895E0
1.309032529E1,-8.886639864E0,4.946521078E0,-4.599273652E0,1.116215736E1
1.310027829E1,-9.600603021E0,4.943010410E0,-5.406978786E0,1.207643780E1
1.311023129E1,-9.991719768E0,4.852895461E0,-6.068268471E0,1.265736705E1
1.312018429E1,-1.006605191E1,4.695263298E0,-6.737229702E0,1.299081070E1
1.313013829E1,-9.907779479E0,4.363977309E0,-7.313982098E0,1.306532534E1
1.314009129E1,-9.582523431E0,3.869358121E0,-7.574580220E0,1.281292133E1
1.315004429E1,-9.196204324E0,3.387457211E0,-7.477493636E0,1.232712259E1
1.315999729E1,-8.913938175E0,2.975405386E0,-7.231845675E0,1.185794767E1
1.316995029E1,-8.611202677E0,2.564784082E0,-6.748036526E0,1.123685569E1
1.317990429E1,-8.252260820E0,2.136123241E0,-6.126585676E0,1.049751795E1
1.318985729E1,-8.148204355E0,1.858621110E0,-5.524013146E0,1.001810500E1
1.319981029E1,-7.946605223E0,1.743961597E0,-4.785485251E0,9.438792598E0
1.320976329E1,-7.532091427E0,1.684311519E0,-3.906661895E0,8.650509449E0
1.321971629E1,-7.270164233E0,1.894884665E0,-3.093716778E0,8.125082115E0
1.322967029E1,-7.089201679E0,2.269911628E0,-2.487638258E0,7.848415340E0
1.323962329E1,-7.005612808E0,2.804919289E0,-2.014376317E0,7.810499022E0
1.324957629E1,-6.960853541E0,3.250353453E0,-1.885460415E0,7.910324935E0
1.325952929E1,-6.750061417E0,3.441278493E0,-2.124490205E0,7.868874470E0
1.326948229E1,-6.382842241E0,3.426242670E0,-2.497614777E0,7.662760174E0
1.327943629E1,-6.085681479E0,3.245617208E0,-2.973395698E0,7.510701173E0
1.328938929E1,-5.894102136E0,3.241142042E0,-3.458087776E0,7.563320222E0
1.329934229E1,-5.535902290E0,3.337645658E0,-3.650537184E0,7.423780333E0
1.330929529E1,-4.947906868E0,3.559173563E0,-3.319919239E0,6.940559241E0
1.331924929E1,-4.271111537E0,3.965263567E0,-2.990605223E0,6.550528873E0
1.332920229E1,-3.398336248E0,4.174122894E0,-2.726388844E0,6.033671131E0
1.333915529E1,-2.370720842E0,3.783649049E0,-2.326525247E0,5.034782732E0
1.334910829E1,-1.221301501E0,2.919660079E0,-1.474652585E0,3.491502911E0
1.335906129E1,2.144390327E-1,1.774220645E0,-3.866483045E-1,1.828480218E0
1.336901529E1,1.756283727E0,3.067083880E-1,6.502092111E-1,1.897728796E0
1.337896829E1,3.732909835E0,-1.290368813E0,1.563472960E0,4.247836532E0
1.338892129E1,5.888122188E0,-2.845166259E0,3.017046332E0,7.201911032E0
1.339887429E1,8.377176057E0,-4.218578105E0,4.748995702E0,1.051315557E1
1.340882729E1,1.181073710E1,-5.509958194E0,6.835472866E0,1.471654985E1
1.341878129E1,1.555194706E1,-6.788353663E0,9.382936910E0,1.939031480E1
1.342873429E1,1.802083447E1,-8.027064664E0,1.091996642E1,2.254839038E1
1.343868729E1,1.843217322E1,-9.296670599E0,1.110718608E1,2.344232660E1
1.344864029E1,1.726521867E1,-1.015763334E1,1.126536028E1,2.298202848E1
1.345859329E1,1.568771707E1,-1.000293473E1,1.161274336E1,2.193214487E1
1.346854729E1,1.508688993E1,-9.540751507E0,1.151958786E1,2.124478975E1
1.347850029E1,1.533808047E1,-8.988620567E0,1.132294600E1,2.107750266E1
1.348845329E1,1.540435281E1,-8.243735579E0,1.041809639E1,2.034182869E1
1.349840629E1,1.524790939E1,-7.315888875E0,9.558087916E0,1.942621979E1
1.350835929E1,1.471827210E1,-6.363458136E0,8.385070383E0,1.809504182E1
1.351831329E1,1.352246037E1,-5.432948610E0,6.679986631E0,1.603109748E1
1.352826629E1,1.127992219E1,-4.086821041E0,4.920835429E0,1.296739650E1
1.353821929E1,8.124893845E0,-2.545754319E0,3.289060851E0,9.127578338E0
1.354817229E1,4.676600155E0,-1.126946590E0,1.977095347E0,5.200913731E0
1.355812529E1,1.346887414E0,1.354058732E-1,1.076171562E0,1.729330995E0
1.356807929E1,-1.688692837E0,1.530716566E0,5.619443214E-1,2.347457800E0
1.357803229E1,-4.423789939E0,2.863400801E0,-3.038929537E-1,5.278383512E0
1.358798529E1,-6.708521628E0,3.871787639E0,-1.253545972E0,7.846424629E0
1.359793829E1,-8.251063895E0,4.485083085E0,-2.136454486E0,9.631223362E0
1.360789129E1,-9.228275717E0,4.656564671E0,-3.129733288E0,1.079999526E1
1.361784529E1,-9.785042914E0,4.592073098E0,-4.168099970E0,1.158478561E1
1.362779829E1,-1.014695399E1,4.166265406E0,-5.334111369E0,1.219717946E1
1.363775129E1,-1.054139078E1,3.989605233E0,-6.340146457E0,1.293194984E1
1.364770429E1,-1.085878350E1,4.086525464E0,-6.955605081E0,1.352750204E1
1.365765729E1,-1.099618254E1,3.996870691E0,-7.196808574E0,1.373626803E1
1.366761129E1,-1.087636374E1,3.736442138E0,-7.086825371E0,1.350849295E1
1.367756429E1,-1.048603870E1,3.494123289E0,-6.508532819E0,1.282680415E1
1.368751729E1,-9.883085518E0,3.280729738E0,-5.731247824E0,1.188636902E1
1.369747029E1,-9.098564594E0,3.243808957E0,-4.833844648E0,1.080149195E1
1.370742329E1,-8.344015328E0,3.227522707E0,-4.042426933E0,9.817367780E0
1.371737729E1,-7.879133032E0,3.249867549E0,-3.526181233E0,9.223683132E0
1.372733029E1,-7.560223551E0,3.237262414E0,-3.109075367E0,8.792223708E0
1.373728329E1,-7.419338983E0,3.159547656E0,-2.908752975E0,8.572641145E0
1.374723629E1,-7.474145520E0,3.236036253E0,-2.905291423E0,8.647282819E0
1.375719029E1,-7.563790938E0,3.383412985E0,-2.994101858E0,8.810395151E0
1.376714329E1,-7.589591777E0,3.492134358E0,-3.181461850E0,8.939720645E0
1.377709629E1,-7.415779198E0,3.495936510E0,-3.152288630E0,8.783636878E0
1.378704929E1,-6.999924052E0,3.504462043E0,-3.013769553E0,8.388265486E0
1.379700229E1,-6.390413800E0,3.577150535E0,-2.752962100E0,7.823822264E0
1.380695529E1,-5.694091108E0,3.674334183E0,-2.410138092E0,7.192507967E0
1.381690929E1,-5.089110110E0,3.789042521E0,-2.201025288E0,6.715682933E0
1.382686229E1,-4.434232482E0,3.767471265E0,-2.026543204E0,6.161423114E0
1.383681529E1,-3.921004822E0,3.763394586E0,-1.831939096E0,5.735278413E0
1.384676829E1,-3.785491506E0,3.883443771E0,-2.005025450E0,5.781972719E0
1.385672229E1,-3.973542055E0,3.842710605E0,-2.646301285E0,6.128488537E0
1.386667529E1,-4.173146117E0,3.914839810E0,-2.943429887E0,6.434663842E0
1.387662829E1,-3.966866874E0,4.218981563E0,-2.617033632E0,6.354896006E0
1.388658129E1,-2.912294049E0,4.218681016E0,-2.140214245E0,5.555109644E0
1.389653429E1,-1.205511680E0,3.513209185E0,-1.410012200E0,3.972912231E0
1.390648829E1,4.317285830E-1,2.357516367E0,-4.650167817E-1,2.441416310E0
1.391644129E1,2.231458876E0,8.160499880E-1,2.470682502E-1,2.388804935E0
1.392639429E1,3.770237875E0,-6.951096877E-1,1.588017232E0,4.149659003E0
1.393634729E1,5.148124303E0,-1.669752098E0,3.450463591E0,6.418485406E0
1.394630029E1,6.272166728E0,-2.168256615E0,4.966904472E0,8.289243165E0
1.395625429E1,7.645187688E0,-2.185970462E0,6.524865262E0,1.028597241E1
1.396620729E1,9.663219100E0,-2.514061241E0,7.939969802E0,1.275701484E1
1.397616029E1,1.215189290E1,-4.036606615E0,8.474283691E0,1.535500498E1
1.398611329E1,1.461277313E1,-6.263286561E0,8.592643030E0,1.807195095E1
1.399606629E1,1.643174135E1,-7.768572709E0,8.847596251E0,2.021466807E1
1.400602029E1,1.746363808E1,-8.594971976E0,9.063460250E0,2.147087586E1
1.401597329E1,1.828868957E1,-9.686531364E0,9.759830305E0,2.288141918E1
1.402592629E1,1.873272128E1,-1.042974522E1,1.062361433E1,2.392813434E1
1.403587929E1,1.848239847E1,-1.041620424E1,1.130677026E1,2.404037058E1
1.404583229E1,1.750104857E1,-1.004860148E1,1.193719367E1,2.344691207E1
1.405578629E1,1.620421566E1,-9.522113507E0,1.175714620E1,2.216929718E1
1.406573929E1,1.486708374E1,-8.787439511E0,1.047486584E1,2.019831890E1
1.407569229E1,1.326510453E1,-7.657941050E0,8.425659415E0,1.748138426E1
1.408564529E1,1.123064185E1,-6.243317735E0,6.242436560E0,1.428545929E1
1.409559829E1,9.248432824E0,-4.799809175E0,4.479526476E0,1.134186207E1
1.410555229E1,7.214152000E0,-3.322914768E0,2.811538922E0,8.425586196E0
1.411550529E1,4.665762341E0,-2.164250395E0,8.599891824E-1,5.214681140E0
1.412545829E1,1.863708188E0,-1.249611235E0,-6.571057096E-1,2.338102727E0
1.413541129E1,-9.272210526E-1,-2.078348950E-1,-1.583128960E0,1.846410444E0
1.414536429E1,-3.502588595E0,9.756690350E-1,-2.017484697E0,4.158160824E0
1.415531829E1,-5.690968695E0,2.101509186E0,-2.049149124E0,6.403317708E0
1.416527129E1,-7.452662265E0,2.985309400E0,-2.010322443E0,8.276209481E0
1.417522429E1,-8.911294649E0,3.710520554E0,-1.925555942E0,9.843114384E0
1.418517729E1,-1.002308072E1,4.372996054E0,-1.939289297E0,1.110612825E1
1.419513029E1,-1.070205824E1,4.718935751E0,-2.103626170E0,1.188392394E1
1.420508429E1,-1.101726760E1,4.596026693E0,-2.822736340E0,1.226668199E1
1.421503729E1,-1.102914914E1,4.294092264E0,-3.681924161E0,1.239507663E1
1.422499029E1,-1.085743981E1,4.020939585E0,-4.260061177E0,1.233693947E1
1.423494329E1,-1.058533846E1,3.911007253E0,-4.767525236E0,1.225049651E1
1.424489629E1,-1.022017399E1,3.833230514E0,-5.188463659E0,1.208576716E1
1.425485029E1,-9.764060766E0,3.642139413E0,-5.514951716E0,1.179053665E1
1.426480329E1,-9.252515350E0,3.491068996E0,-5.696199614E0,1.141241837E1
1.427475629E1,-8.711782973E0,3.361551122E0,-5.312726347E0,1.074338167E1
1.428470929E1,-8.108109412E0,3.236637639E0,-4.626515830E0,9.880380062E0
1.429466229E1,-7.590060139E0,3.109011340E0,-3.993326109E0,9.122588330E0
1.430461629E1,-7.370857379E0,2.912977881E0,-3.171970358E0,8.536766050E0
1.431456929E1,-7.356590173E0,2.837044476E0,-2.372930797E0,8.234017301E0
1.432452229E1,-7.473791764E0,2.861135589E0,-1.894535586E0,8.223923959E0
1.433447529E1,-7.582771584E0,2.816054434E0,-1.626446303E0,8.250691792E0
1.434442829E1,-7.727726399E0,2.775581177E0,-1.460718962E0,8.339982377E0
1.435438229E1,-7.885959656E0,2.888043306E0,-1.334919918E0,8.503597182E0
1.436433529E1,-7.851058795E0,3.126107429E0,-1.346956704E0,8.557217085E0
1.437428829E1,-7.544305092E0,3.396005256E0,-1.670461219E0,8.440369168E0
1.438424129E1,-7.231180261E0,3.631012747E0,-2.095639459E0,8.358583988E0
1.439419429E1,-7.059875554E0,3.728158972E0,-2.413883234E0,8.340734046E0
1.440414829E1,-6.955049011E0,3.745099233E0,-2.583775839E0,8.311099361E0
1.441410129E1,-6.897463877E0,3.788580006E0,-2.860321657E0,8.373158685E0
1.442405429E1,-6.785554601E0,3.840913171E0,-2.825106216E0,8.293225570E0
1.443400729E1,-6.453341535E0,3.912697683E0,-2.393975803E0,7.917445313E0
1.444396029E1,-5.854521164E0,4.135117580E0,-2.228834646E0,7.506152099E0
1.445391429E1,-4.926133007E0,4.181326956E0,-1.944657626E0,6.747738495E0
1.446386729E1,-3.828655652E0,3.963592433E0,-1.684184926E0,5.762390818E0
1.447382029E1,-2.939688254E0,3.763360088E0,-1.366057511E0,4.966966811E0
1.448377329E1,-1.936583206E0,3.597659059E0,-9.310930789E-1,4.190517813E0
1.449372629E1,-6.855187923E-1,3.386723093E0,-3.535013160E-1,3.473441018E0
1.450368029E1,7.875579679E-1,2.567009532E0,8.456360221E-2,2.686435649E0
1.451363329E1,2.375157709E0,9.187659788E-1,9.870713979E-1,2.731266192E0
1.452358629E1,4.702267678E0,-1.281270253E0,2.829375853E0,5.635454063E0
1.453353929E1,7.991361566E0,-3.081819741E0,5.199775683E0,1.001983731E1
1.454349229E1,1.162586919E1,-3.954186894E0,7.499224813E0,1.438870395E1
1.455344629E1,1.493684687E1,-4.453901053E0,9.324778749E0,1.816309797E1
1.456339929E1,1.713312539E1,-5.111152943E0,1.018717932E1,2.057781554E1
1.457335229E1,1.802651562E1,-6.301578223E0,1.021081962E1,2.165469905E1
1.458330529E1,1.762911780E1,-7.877468330E0,9.386438223E0,2.146964192E1
1.459325829E1,1.620077984E1,-8.871310803E0,8.325376743E0,2.026023989E1
1.460321229E1,1.495249285E1,-9.299726939E0,7.789156078E0,1.925442588E1
1.461316529E1,1.445603033E1,-9.596468455E0,7.898496671E0,1.906450286E1
1.462311829E1,1.455706671E1,-9.739631099E0,7.929317930E0,1.922609393E1
1.463307129E1,1.428455839E1,-9.554944453E0,7.785931923E0,1.886706940E1
1.464302429E1,1.331745699E1,-8.671583365E0,7.224102792E0,1.745676602E1
1.465297829E1,1.186926539E1,-7.358297560E0,5.768936638E0,1.510975294E1
1.466293129E1,1.006039649E1,-5.995752472E0,4.362026093E0,1.249751562E1
1.467288429E1,8.237226459E0,-4.527768636E0,3.073092479E0,9.889210582E0
1.468283729E1,6.321235392E0,-2.763817456E0,2.404052310E0,7.305899761E0
1.469279129E1,4.984637908E0,-8.146463639E-1,2.308594176E0,5.553365722E0
1.470274108E1,3.889349751E0,7.539584050E-1,1.869031201E0,4.380499103E0
1.471269408E1,2.469030663E0,1.983858529E0,1.258374310E0,3.408124556E0
1.472264708E1,8.532344788E-1,3.256629854E0,6.771563968E-1,3.433975519E0
1.473260008E1,-9.666880041E-1,4.317572051E0,1.107287228E-1,4.425853021E0
1.474255408E1,-2.991574107E0,5.150161473E0,-5.574250084E-1,5.982006476E0
1.475250708E1,-4.949104378E0,5.727578112E0,-1.147664299E0,7.656103351E0
1.476246008E1,-6.372785615E0,5.681152974E0,-1.914904654E0,8.749557442E0
1.477241308E1,-7.622165446E0,5.239460735E0,-2.926502783E0,9.701225356E0
1.478236608E1,-9.016155106E0,4.821632153E0,-3.861284578E0,1.092925927E1
1.479232008E1,-1.032099519E1,4.470963813E0,-4.402694355E0,1.207874897E1
1.480227308E1,-1.130296489E1,4.357886264E0,-4.629307290E0,1.296837207E1
1.481222608E1,-1.173969577E1,4.266933409E0,-4.934526100E0,1.343044025E1
1.482217908E1,-1.144807642E1,3.896653216E0,-5.220944942E0,1.317196363E1
1.483213208E1,-1.075776583E1,3.466865323E0,-5.171571053E0,1.242955462E1
1.484208608E1,-9.912368374E0,3.245297658E0,-4.713617416E0,1.144574999E1
1.485203908E1,-9.196302558E0,3.173779778E0,-4.256490574E0,1.061897221E1
1.486199208E1,-8.785721015E0,3.034995823E0,-3.720427199E0,1.001207630E1
1.487194508E1,-8.330835119E0,3.029606444E0,-3.463796997E0,9.517311523E0
1.488189808E1,-7.795142457E0,3.071840298E0,-3.108033686E0,8.936460268E0
1.489185208E1,-7.202961014E0,3.062655492E0,-2.701541685E0,8.280146950E0
1.490180508E1,-6.836090332E0,3.174929049E0,-2.413249980E0,7.914295986E0
1.491175808E1,-6.692579194E0,3.407863117E0,-2.286425042E0,7.850597861E0
1.492171108E1,-6.696243060E0,3.605692549E0,-2.101212732E0,7.890233508E0
1.493166408E1,-6.790284414E0,3.758166883E0,-2.011002474E0,8.017225935E0
1.494161808E1,-6.962727574E0,3.786817070E0,-2.008958872E0,8.176519709E0
1.495157108E1,-7.044074038E0,3.843417533E0,-2.049531240E0,8.281993461E0
1.496152408E1,-6.969299260E0,3.772435259E0,-1.860177347E0,8.140187941E0
1.497147708E1,-7.091763929E0,3.682802705E0,-1.775816643E0,8.185943815E0
1.498143008E1,-7.211962218E0,3.646968044E0,-1.662046783E0,8.250768113E0
1.499138408E1,-7.201272338E0,3.639175752E0,-1.356432994E0,8.181798941E0
1.500133708E1,-7.140068362E0,3.632424265E0,-1.043508431E0,8.078613254E0
1.501129008E1,-7.071706225E0,3.732186827E0,-9.647008279E-1,8.054122866E0
1.502124308E1,-6.846365059E0,3.904157825E0,-1.121140159E0,7.960660657E0
1.503119608E1,-5.858935227E0,3.676155883E0,-1.044750380E0,6.995194595E0
1.504115008E1,-4.390209965E0,3.254969537E0,-6.637306049E-1,5.505389045E0
1.505110308E1,-2.997566333E0,2.833303135E0,-3.661494282E-1,4.140902798E0
1.506105608E1,-1.185113668E0,1.786145457E0,3.017864943E-2,2.143763222E0
1.507100908E1,8.805807370E-1,1.728644523E-1,7.150940090E-1,1.147459801E0
1.508096208E1,3.133574324E0,-1.561458009E0,1.444087434E0,3.787192585E0
1.509091608E1,6.022172531E0,-3.323032005E0,2.441362224E0,7.298585699E0
1.510086908E1,9.532166040E0,-4.832317648E0,4.017803723E0,1.141736528E1
1.511082208E1,1.243133835E1,-5.304872952E0,5.659446355E0,1.465295818E1
1.512077508E1,1.509338502E1,-5.312497721E0,6.633132307E0,1.732141298E1
1.513072808E1,1.778505953E1,-5.868951507E0,6.849990917E0,1.994179806E1
1.514068208E1,1.932237205E1,-7.365272119E0,6.760002269E0,2.175543439E1
1.515063508E1,1.889430908E1,-9.023365307E0,6.691871681E0,2.198174660E1
1.516058808E1,1.723117618E1,-9.897838043E0,6.871464232E0,2.102611831E1
1.517054108E1,1.605801305E1,-1.050669458E1,7.294178163E0,2.052938014E1
1.518049408E1,1.626873852E1,-1.088461533E1,7.864277011E0,2.109487039E1
1.519044808E1,1.670749954E1,-1.091231125E1,7.583948629E0,2.134795903E1
1.520040108E1,1.681603322E1,-1.036977968E1,6.608224922E0,2.083218521E1
1.521035408E1,1.651531326E1,-9.783611516E0,5.498681839E0,1.996772717E1
1.522030708E1,1.539454469E1,-8.933773685E0,4.588239664E0,1.838086673E1
1.523026008E1,1.362375285E1,-7.739104496E0,3.989591200E0,1.616840184E1
1.524021408E1,1.154440345E1,-6.414908956E0,3.885800199E0,1.376676255E1
1.525016708E1,9.260307350E0,-4.730724615E0,3.476945339E0,1.096458829E1
1.526012008E1,7.002050684E0,-3.131301803E0,2.895123408E0,8.198506224E0
1.527007308E1,4.851440674E0,-1.816986011E0,2.148068225E0,5.608218245E0
1.528002608E1,2.711356822E0,-5.916277117E-1,1.141319777E0,3.000681589E0
1.528998008E1,3.683962208E-1,5.931500342E-1,1.234987494E-1,7.090801645E-1
1.529993308E1,-2.356291083E0,1.720668629E0,-9.627569211E-1,3.072410957E0
1.530988608E1,-5.005543458E0,3.100046681E0,-1.830280241E0,6.165685728E0
1.531983908E1,-7.064234653E0,4.432350263E0,-2.490045556E0,8.703416970E0
1.532979208E1,-8.465159111E0,5.281291131E0,-3.275811353E0,1.050151869E1
1.533974608E1,-9.173896612E0,5.556563426E0,-4.320084600E0,1.156282436E1
1.534969908E1,-9.337097663E0,5.490361251E0,-5.139178648E0,1.198902067E1
1.535965208E1,-9.326710085E0,5.257792926E0,-5.806606155E0,1.217984329E1
1.536960508E1,-9.243574373E0,4.922814127E0,-6.082835639E0,1.211109638E1
1.537955808E1,-9.295169619E0,4.646961496E0,-6.152974745E0,1.207698338E1
1.538951208E1,-9.444739641E0,4.336375527E0,-6.096940293E0,1.204906389E1
1.539946508E1,-9.682765172E0,3.988301012E0,-5.805331462E0,1.197348570E1
1.540941808E1,-9.842710494E0,3.624217405E0,-5.404253983E0,1.179914670E1
1.541937108E1,-9.857985760E0,3.349075795E0,-4.681244599E0,1.141535120E1
1.542932408E1,-9.641316599E0,3.214511775E0,-4.027198152E0,1.093189813E1
1.543927808E1,-9.344045910E0,3.144131472E0,-3.365529276E0,1.041746341E1
1.544923108E1,-8.990652475E0,3.206776786E0,-2.780792215E0,9.942235896E0
1.545918408E1,-8.547946914E0,3.185572443E0,-2.481473246E0,9.453728243E0
1.546913708E1,-8.102705415E0,3.141121033E0,-2.603594391E0,9.071889558E0
1.547909008E1,-7.908481961E0,3.239973183E0,-2.668264012E0,8.953275713E0
1.548904408E1,-7.887073551E0,3.630168116E0,-2.680143800E0,9.086650678E0
1.549899708E1,-7.681442179E0,3.983794270E0,-2.757089357E0,9.081669035E0
1.550895008E1,-7.247667071E0,4.071310424E0,-2.628543291E0,8.718571349E0
1.551890308E1,-6.922173041E0,4.123957000E0,-2.622476512E0,8.473540228E0
1.552885608E1,-6.642393712E0,4.264362973E0,-2.505164702E0,8.281427170E0
1.553881008E1,-6.319651966E0,4.276563773E0,-2.518890456E0,8.035658518E0
1.554876308E1,-6.366430276E0,4.189538786E0,-2.673599596E0,8.076620859E0
1.555871608E1,-6.747541852E0,4.146944159E0,-2.652844319E0,8.352487646E0
1.556866908E1,-7.011938910E0,4.104534596E0,-2.409417130E0,8.474655299E0
1.557862208E1,-7.358434385E0,3.993837740E0,-1.920923485E0,8.589950147E0
1.558857508E1,-7.647765725E0,3.984261463E0,-1.484477369E0,8.750219029E0
1.559852908E1,-7.480629498E0,4.087351091E0,-9.723723748E-1,8.579729871E0
1.560848208E1,-6.758417088E0,3.929712496E0,-8.373449627E-1,7.862568819E0
1.561843508E1,-5.646365549E0,3.434056889E0,-9.860957900E-1,6.681809301E0
1.562838808E1,-4.424836006E0,2.757435512E0,-1.100521707E0,5.328580704E0
1.563834108E1,-2.936442465E0,1.977305262E0,-8.582543135E-1,3.642668104E0
1.564829508E1,-5.771751487E-1,4.681690156E-1,-3.577265140E-1,8.247918758E-1
1.565824808E1,2.580328320E0,-1.597437389E0,3.014213356E-1,3.049713966E0
1.566820108E1,5.852752381E0,-3.321037227E0,1.188775487E0,6.833533921E0
1.567815408E1,9.975717108E0,-4.955031116E0,2.859855342E0,1.149982773E1
1.568810708E1,1.469344716E1,-6.579639055E0,4.926508398E0,1.683625625E1
1.569806108E1,1.848356440E1,-7.846109127E0,6.165264423E0,2.100509621E1
1.570801329E1,2.120146835E1,-9.104624648E0,6.736322215E0,2.403694005E1
1.571796629E1,2.236720201E1,-1.105755258E1,7.108420308E0,2.594399418E1
1.572791929E1,2.157990483E1,-1.293147643E1,7.295296150E0,2.619421159E1
1.573787229E1,1.949231201E1,-1.398275786E1,8.006359674E0,2.528971214E1
1.574782629E1,1.759897072E1,-1.438696302E1,8.685952313E0,2.433421959E1
1.575777929E1,1.693305940E1,-1.464091929E1,9.236399254E0,2.421561664E1
1.576773229E1,1.718779685E1,-1.454919051E1,9.366020916E0,2.438896580E1
1.577768529E1,1.719304765E1,-1.311117540E1,8.783231270E0,2.333771539E1
1.578763829E1,1.679156379E1,-1.077378369E1,7.021434789E0,2.115021457E1
1.579759229E1,1.649153848E1,-8.956108879E0,5.014722417E0,1.942498825E1
1.580754529E1,1.565688587E1,-7.617868327E0,2.507463827E0,1.759140039E1
1.581749829E1,1.344989057E1,-6.090430003E0,1.698028502E-1,1.476555881E1
1.582745129E1,9.861076598E0,-4.299715239E0,-1.141477067E0,1.081810301E1
1.583740529E1,5.660983003E0,-2.112212222E0,-1.632090036E0,6.258744836E0
1.584735829E1,1.963486830E0,2.135274518E-1,-1.362288980E0,2.399313604E0
1.585731129E1,-1.084662012E0,2.226056341E0,-1.113103454E0,2.714925010E0
1.586726429E1,-3.775844185E0,4.015202589E0,-9.221135098E-1,5.588304257E0
1.587721729E1,-5.945098627E0,5.501322441E0,-8.837566522E-1,8.147991907E0
1.588717029E1,-7.604791029E0,6.637514210E0,-1.343830782E0,1.018309003E1
1.589712429E1,-8.825417762E0,7.241848506E0,-2.142318658E0,1.161558856E1
1.590707729E1,-9.584801506E0,7.357288916E0,-3.092280410E0,1.247238222E1
1.591703029E1,-1.005869728E1,7.199618161E0,-4.489118249E0,1.315918217E1
1.592698329E1,-1.020588691E1,6.779712063E0,-5.796233779E0,1.355437011E1
1.593693629E1,-9.986709874E0,6.285485516E0,-6.599074030E0,1.351996599E1
1.594689029E1,-9.475053361E0,5.714872112E0,-6.975060521E0,1.308005614E1
1.595684329E1,-8.964979690E0,5.038745703E0,-6.859441187E0,1.236170508E1
1.596679629E1,-8.603791916E0,4.252110425E0,-6.333015193E0,1.149838075E1
1.597674929E1,-8.312477201E0,3.412632106E0,-5.385779121E0,1.047616112E1
1.598670229E1,-8.052007717E0,2.772887949E0,-4.256832637E0,9.520733162E0
1.599665629E1,-8.045943570E0,2.466159096E0,-3.217275754E0,9.009440154E0
1.600660929E1,-8.341910330E0,2.476466568E0,-2.203672323E0,8.976442855E0
1.601656229E1,-8.589947464E0,2.716343620E0,-1.605226465E0,9.151091306E0
1.602651529E1,-8.685645334E0,2.927260874E0,-1.348275836E0,9.264293758E0
1.603646829E1,-8.696326443E0,3.200187851E0,-1.236974086E0,9.348657699E0
1.604642229E1,-8.577678251E0,3.396443505E0,-1.370749024E0,9.326915114E0
1.605637529E1,-8.485597469E0,3.561084433E0,-1.674070998E0,9.353566188E0
1.606632829E1,-8.504912576E0,3.813227774E0,-2.203721439E0,9.577610984E0
1.607628129E1,-8.425910845E0,3.995976360E0,-2.666492598E0,9.699174368E0
1.608623429E1,-8.271456644E0,4.050517141E0,-3.156658839E0,9.735922100E0
1.609618829E1,-8.052322297E0,3.918061042E0,-3.568366263E0,9.639726889E0
1.610614129E1,-7.708144074E0,3.804463382E0,-3.685154163E0,9.352528423E0
1.611609429E1,-7.626139213E0,3.873045667E0,-3.636760852E0,9.294326847E0
1.612604729E1,-7.529583557E0,3.873596475E0,-3.341995110E0,9.103203255E0
1.613600029E1,-7.388002585E0,3.898362649E0,-3.234504282E0,8.957780501E0
1.614595429E1,-7.167650263E0,3.781644331E0,-2.997003247E0,8.640490299E0
1.615590729E1,-6.967357399E0,3.718312553E0,-2.630612328E0,8.324063827E0
1.616586029E1,-6.731898796E0,3.824572834E0,-2.214993117E0,8.053074771E0
1.617581329E1,-6.339426080E0,4.119626260E0,-1.792125404E0,7.769900708E0
1.618576629E1,-5.465055671E0,4.206073542E0,-1.473475540E0,7.051880479E0
1.619572029E1,-4.727201959E0,4.000829549E0,-1.402641200E0,6.349840768E0
1.620567329E1,-3.960287586E0,3.464700100E0,-1.217963034E0,5.401060868E0
1.621562629E1,-2.633806370E0,2.417034883E0,-8.159997019E-1,3.666721851E0
1.622557929E1,3.368580937E-3,3.532490087E-1,1.117131016E-1,3.705077955E-1
1.623553229E1,3.533969432E0,-1.809892169E0,1.525492955E0,4.253443119E0
1.624548629E1,7.183602637E0,-3.362121811E0,3.249307094E0,8.571231330E0
1.625543929E1,1.063935036E1,-4.162926938E0,4.666115220E0,1.234092249E1
1.626539229E1,1.434217334E1,-5.259301507E0,5.539904124E0,1.624957619E1
1.627534529E1,1.776379204E1,-7.072546470E0,6.743055283E0,2.027417114E1
1.628529829E1,1.994283647E1,-8.639324276E0,7.752556601E0,2.307502512E1
1.629525229E1,2.079352449E1,-9.573267873E0,8.539784786E0,2.443247925E1
1.630520529E1,2.127824931E1,-1.078471799E1,9.600476722E0,2.571464931E1
1.631515829E1,2.155144760E1,-1.239200530E1,1.067315662E1,2.705444439E1
1.632511129E1,2.113158945E1,-1.358521970E1,1.155473781E1,2.765165877E1
1.633506429E1,1.977337481E1,-1.355419204E1,1.211438067E1,2.686002033E1
1.634501829E1,1.822586124E1,-1.189238294E1,1.235278920E1,2.502403226E1
1.635497129E1,1.745319262E1,-9.448325154E0,1.143265848E1,2.290393985E1
1.636492429E1,1.694858726E1,-7.611273252E0,8.977349474E0,2.063441044E1
1.637487729E1,1.561442456E1,-6.130108624E0,5.986841315E0,1.781097288E1
1.638483029E1,1.320630493E1,-4.395740261E0,2.896341090E0,1.421681448E1
1.639478429E1,9.947234151E0,-2.916455220E0,7.469788760E-1,1.039284156E1
1.640473729E1,6.303285609E0,-1.521958606E0,-2.494302329E-1,6.489220517E0
1.641469029E1,2.725659696E0,4.867310017E-2,-3.103547117E-1,2.743703682E0
1.642464329E1,-4.609816182E-1,1.569989389E0,2.068978786E-2,1.636398119E0
1.643459629E1,-3.343186480E0,2.885887438E0,1.073963946E-1,4.417779547E0
1.644455029E1,-5.943776572E0,4.064712426E0,-2.871778107E-1,7.206444209E0
1.645450329E1,-8.067230358E0,5.070955675E0,-1.061507623E0,9.587575060E0
1.646445629E1,-9.752568648E0,5.779990214E0,-2.086355542E0,1.152708816E1
1.647440929E1,-1.085747021E1,6.112440677E0,-3.367545688E0,1.290685687E1
1.648436229E1,-1.128464674E1,6.105848526E0,-5.114296407E0,1.381233745E1
1.649431629E1,-1.112966512E1,5.733629980E0,-6.828029945E0,1.426064344E1
1.650426929E1,-1.067875007E1,5.232128327E0,-7.972152877E0,1.431663687E1
1.651422229E1,-1.015235214E1,4.874699144E0,-8.681149995E0,1.421953976E1
1.652417529E1,-9.671088282E0,4.495442597E0,-8.674864823E0,1.374744458E1
1.653412829E1,-9.123244522E0,4.050731441E0,-8.080470209E0,1.284274171E1
