"Time (s)","Linear Acceleration x (m/s^2)","Linear Acceleration y (m/s^2)","Linear Acceleration z (m/s^2)","Absolute acceleration (m/s^2)"
1.519270847E-2,1.905585654E-1,-2.391686618E-2,5.857331336E-2,2.007869925E-1
2.521770843E-2,1.753195520E-1,-4.144535691E-2,3.148901045E-2,1.828830793E-1
3.524270840E-2,1.644617110E-1,-9.093297422E-3,-8.763163626E-2,1.865734336E-1
4.526770837E-2,1.407522748E-1,4.827051938E-2,-2.151681805E-1,2.616077059E-1
5.529270833E-2,1.085798711E-1,8.073075235E-2,-2.641503060E-1,2.967868375E-1
6.531770830E-2,9.880303413E-2,4.695957363E-2,-2.096840769E-1,2.365050807E-1
7.534270850E-2,1.362192940E-1,3.922867745E-2,-2.100711626E-1,2.534254891E-1
8.536770847E-2,9.722019285E-2,7.644006550E-2,-2.047946352E-1,2.392398213E-1
9.539270843E-2,4.387048960E-2,6.609604865E-2,-1.665655392E-1,1.844922393E-1
1.054177084E-1,2.710622996E-3,3.450178832E-2,-1.561797148E-1,1.599681974E-1
1.154427084E-1,-3.125629127E-2,5.152858794E-3,-1.601792103E-1,1.632816190E-1
1.254677083E-1,-4.189318053E-2,-4.993843764E-2,-1.283662641E-1,1.439679961E-1
1.354937083E-1,-6.780650541E-2,-6.984411389E-2,-1.193603826E-1,1.540221521E-1
1.455187083E-1,-6.691677846E-2,-4.829215407E-2,-1.452179396E-1,1.670276545E-1
1.555437085E-1,-5.495381378E-2,-2.980091929E-2,-1.597640580E-1,1.715592337E-1
1.655687084E-1,-4.404122829E-2,-1.226102650E-2,-1.821746814E-1,1.878232603E-1
1.755937084E-1,-5.243022859E-2,3.454330355E-2,-1.938077170E-1,2.037243232E-1
1.856187084E-1,-6.670101620E-2,5.738252789E-2,-1.619053084E-1,1.842691210E-1
1.956437083E-1,-6.296888463E-2,2.522108763E-2,-1.003206789E-1,1.211008766E-1
2.056687083E-1,-4.837328419E-2,1.057819784E-2,-8.678028166E-2,9.991341341E-2
2.156937083E-1,-2.217746571E-2,4.795009196E-3,-7.964492440E-2,8.281392444E-2
2.257187085E-1,-2.554421939E-2,1.487531662E-3,-1.012766987E-1,1.044590331E-1
2.357437084E-1,-2.503017604E-2,-2.515150577E-2,-1.342818922E-1,1.388910887E-1
2.457687084E-1,-4.829164244E-2,-4.354275316E-2,-1.332042503E-1,1.482276168E-1
2.557937084E-1,-8.618766636E-2,-2.040181249E-2,-9.850336432E-2,1.324668282E-1
2.658187083E-1,-9.886442989E-2,6.679859161E-3,-2.679720461E-2,1.026493360E-1
2.758437083E-1,-1.246657075E-1,5.420076549E-3,1.139388442E-2,1.253025796E-1
2.858687083E-1,-1.315842792E-1,-2.468899101E-2,5.250682712E-2,1.438086775E-1
2.958947085E-1,-1.107781318E-1,-2.719803125E-2,8.636512935E-2,1.430750256E-1
3.059197085E-1,-8.807938680E-2,-2.666388810E-2,6.290668488E-2,1.114728322E-1
3.159447084E-1,-3.297193743E-2,-3.195444882E-2,-1.076472402E-2,4.716052100E-2
3.259697084E-1,3.533910960E-4,-3.169278592E-2,-8.959571600E-2,9.503657133E-2
3.359947084E-1,1.844591886E-2,1.617252141E-2,-1.344438601E-1,1.366636524E-1
3.460197083E-1,3.159469888E-3,8.320120096E-2,-1.809795105E-1,1.992134667E-1
3.560447083E-1,2.370022684E-3,8.599090755E-2,-1.949122560E-1,2.130512631E-1
3.660697085E-1,4.540801495E-3,6.143932611E-2,-1.850497574E-1,1.950354388E-1
3.760947085E-1,1.216220856E-3,3.486957818E-2,-1.558095860E-1,1.596683869E-1
3.861197084E-1,1.076413929E-2,5.273720741E-2,-1.692844945E-1,1.776353563E-1
3.961447084E-1,3.422470339E-2,7.560917616E-2,-2.498684818E-1,2.632913520E-1
4.061697084E-1,8.424756020E-2,8.927675039E-2,-3.442834729E-1,3.655121055E-1
4.161947083E-1,1.183654788E-1,1.100317347E-1,-4.535433751E-1,4.814758170E-1
4.262197083E-1,1.189936160E-1,1.189712504E-1,-5.354809928E-1,5.612962967E-1
4.362447085E-1,8.916550711E-2,1.302818120E-1,-6.307321358E-1,6.501898686E-1
4.462697085E-1,6.438303374E-2,1.300809601E-1,-7.608174813E-1,7.745382308E-1
4.562947084E-1,3.338131562E-2,1.294096997E-1,-8.711187726E-1,8.813110113E-1
4.663197084E-1,2.047687612E-2,1.199287319E-1,-9.401562631E-1,9.479957818E-1
4.763457084E-1,3.667519838E-2,1.194545227E-1,-1.020204061E0,1.027828185E0
4.863707083E-1,6.276642479E-2,9.582563192E-2,-1.121975434E0,1.127808073E0
4.963957083E-1,7.182917051E-2,9.900154710E-2,-1.238681180E0,1.244705509E0
5.064207085E-1,9.576211654E-2,8.763689876E-2,-1.367946162E0,1.374091449E0
5.164457085E-1,9.601544715E-2,7.511333227E-2,-1.498741359E0,1.503691006E0
5.264707084E-1,8.547299042E-2,8.492554486E-2,-1.623343186E0,1.627808674E0
5.364957084E-1,8.165680513E-2,6.919536531E-2,-1.777677519E0,1.780896739E0
5.465207084E-1,5.504554197E-2,2.642269045E-2,-1.942144493E0,1.943104063E0
5.565457083E-1,4.982397839E-2,3.672022194E-2,-2.071898886E0,2.072823147E0
5.665707083E-1,2.982862048E-2,4.703207910E-2,-2.222684544E0,2.223382186E0
5.765919583E-1,1.387931652E-2,4.918853223E-2,-2.368940365E0,2.369491633E0
5.866169585E-1,7.586396858E-3,2.634024471E-2,-2.435381107E0,2.435535361E0
5.966419585E-1,-1.185822643E-2,-2.016704679E-2,-2.506892554E0,2.507001716E0
6.066669584E-1,-5.182558995E-2,-1.611872703E-2,-2.574280545E0,2.574852623E0
6.166919584E-1,-1.248254827E-1,1.246041656E-2,-2.571977912E0,2.575035347E0
6.267169584E-1,-1.726493479E-1,-2.472699791E-2,-2.542740079E0,2.548714643E0
6.367419583E-1,-1.852191073E-1,-9.792215109E-2,-2.531671885E0,2.540326238E0
6.467669583E-1,-1.608882583E-1,-6.688454568E-2,-2.542060048E0,2.548024306E0
6.567929585E-1,-2.122367520E-1,8.081173629E-2,-2.435843037E0,2.446406809E0
6.668179585E-1,-3.033891430E-1,1.904031757E-1,-2.271640942E0,2.299706701E0
6.768429584E-1,-2.914418927E-1,1.476693848E-1,-2.177589063E0,2.201962477E0
6.868679584E-1,-2.458761491E-1,-1.832634330E-2,-2.038573265E0,2.053429301E0
6.968929584E-1,-2.226891616E-1,-1.282095587E-1,-2.029052244E0,2.045258214E0
7.069179583E-1,-2.289828853E-1,-2.127012402E-1,-1.937060924E0,1.962111108E0
7.169429583E-1,-1.763311934E-1,-2.697987163E-1,-1.958303858E0,1.984650608E0
7.269679585E-1,-1.341042099E-1,-2.328796890E-1,-2.017057850E0,2.034880650E0
7.369929585E-1,-9.978573181E-2,-1.239039615E-1,-1.898696757E0,1.905350036E0
7.470179584E-1,-1.339718436E-1,5.807805419E-2,-1.823360646E0,1.829198065E0
7.570429584E-1,-1.573894306E-1,2.043873766E-1,-1.739058414E0,1.758086972E0
7.670679584E-1,-2.789891506E-1,3.492962909E-1,-1.533901252E0,1.597715837E0
7.770929583E-1,-4.022991811E-1,4.933421561E-1,-1.416105584E0,1.552606241E0
7.871179583E-1,-4.855687945E-1,5.368919259E-1,-1.204583727E0,1.405365415E0
7.971429585E-1,-5.296320961E-1,6.091316441E-1,-7.244986707E-1,1.084642725E0
8.071679585E-1,-3.586157294E-1,6.209664086E-1,5.037727118E-2,7.188479612E-1
8.171929584E-1,-4.866162501E-2,5.726388788E-1,1.273542280E0,1.397209068E0
8.272179584E-1,1.748194689E-1,6.820546094E-1,3.076814817E0,3.156350702E0
8.372439584E-1,2.576213781E-1,1.055336764E0,4.894601896E0,5.013704437E0
8.472689583E-1,2.150733459E-1,1.539782966E0,6.205226049E0,6.397032003E0
8.572939583E-1,2.301127866E-1,1.905444151E0,7.287034035E0,7.535551362E0
8.673189583E-1,3.625067225E-1,2.012883815E0,7.786348245E0,8.050486405E0
8.773439585E-1,5.908939592E-1,1.851280516E0,8.104885842E0,8.334600754E0
8.873689584E-1,6.353892969E-1,2.020856494E0,8.091333166E0,8.364045249E0
8.973939584E-1,4.454898588E-1,2.677571317E0,8.217600864E0,8.654294503E0
9.074189584E-1,2.571959749E-1,3.539571065E0,8.722404440E0,9.416743190E0
9.174439583E-1,-1.212119125E-1,4.336849444E0,9.462416359E0,1.040962433E1
9.274689583E-1,-2.956194359E-1,4.450117320E0,1.002835140E1,1.097537092E1
9.374939583E-1,-2.029331741E-1,3.783073098E0,1.021481210E1,1.089473313E1
9.475189585E-1,-3.615084931E-2,3.280718921E0,1.047681647E1,1.097852936E1
9.575439584E-1,1.205290856E-1,2.930749031E0,1.087093284E1,1.125970683E1
9.675689584E-1,2.994582792E-1,2.615515987E0,1.131308759E1,1.161535837E1
9.775939584E-1,5.534939253E-1,2.673951891E0,1.206579967E1,1.237092946E1
9.876189583E-1,6.465418375E-1,2.799493073E0,1.303301801E1,1.334596330E1
9.976439583E-1,2.922923702E-1,3.164439144E0,1.376916258E1,1.413113400E1
1.007668958E0,7.060330175E-2,3.254508484E0,1.335528496E1,1.374628847E1
1.017693958E0,3.168013401E-1,2.651177863E0,1.227169884E1,1.255880964E1
1.027719958E0,7.267486062E-1,2.068949550E0,1.078294160E1,1.100366054E1
1.037744958E0,1.283597445E0,1.552996504E0,9.124266615E0,9.344070944E0
1.047769958E0,1.799780287E0,7.140426797E-1,7.819025409E0,8.055198593E0
1.057794958E0,1.798947351E0,2.429100028E-1,6.936773538E0,7.170358705E0
1.067819958E0,1.607111023E0,1.496805346E-1,5.978697313E0,6.192740239E0
1.077844958E0,1.172176411E0,2.442674339E-2,5.278365769E0,5.407008360E0
1.087869958E0,7.168645459E-1,1.595126277E-1,4.520863659E0,4.580125247E0
1.097894958E0,2.390515713E-1,3.675179690E-1,3.210434219E0,3.240231934E0
1.107919958E0,-4.400124065E-1,6.604690281E-1,1.256260250E0,1.485940803E0
1.117944958E0,-6.981957020E-1,7.575468412E-1,-1.104020973E0,1.510038663E0
1.127969958E0,-6.435073518E-1,3.137729940E-1,-3.519170714E0,3.591255730E0
1.137994958E0,-7.148652367E-1,-5.068059549E-1,-5.677207857E0,5.744438496E0
1.148019958E0,-1.070225602E0,-1.264279706E0,-7.301402398E0,7.486939494E0
1.158044958E0,-1.547798329E0,-1.806185035E0,-8.199867429E0,8.537904303E0
1.168069958E0,-2.153894099E0,-1.911115951E0,-8.293705884E0,8.779361096E0
1.178094958E0,-2.401622792E0,-1.845972998E0,-8.181057521E0,8.723824305E0
1.188119958E0,-2.277809755E0,-2.165868612E0,-8.043315831E0,8.635643211E0
1.198144958E0,-2.216945210E0,-2.391886301E0,-8.019865572E0,8.657609944E0
1.208169958E0,-2.233420032E0,-2.428670550E0,-8.154594192E0,8.796818295E0
1.218195958E0,-2.003141331E0,-2.558705902E0,-8.381985977E0,8.989840933E0
1.228220958E0,-1.519358934E0,-2.586820776E0,-8.638141969E0,9.144265415E0
1.238245958E0,-9.167253006E-1,-2.565594799E0,-8.807978441E0,9.219715081E0
1.248270958E0,-5.387829886E-1,-2.751947023E0,-8.915674213E0,9.346269106E0
1.258295958E0,-4.176397169E-1,-2.942820023E0,-8.610525570E0,9.109103315E0
1.268320958E0,-4.246129601E-1,-3.077274992E0,-8.135700084E0,8.708589633E0
1.278345958E0,-6.675371423E-1,-3.056920835E0,-7.763992000E0,8.370779092E0
1.288370958E0,-9.800958158E-1,-2.943324637E0,-7.483862423E0,8.101354486E0
1.298395958E0,-1.148544670E0,-2.828123087E0,-7.217736343E0,7.836654450E0
1.308420958E0,-1.194119550E0,-2.744895574E0,-7.348630943E0,7.934907054E0
1.318445958E0,-9.940704419E-1,-2.729529676E0,-7.488137907E0,8.031856424E0
1.328470958E0,-8.281194451E-1,-2.712794652E0,-7.806053946E0,8.305390710E0
1.338495958E0,-8.490768892E-1,-2.659686731E0,-8.165830786E0,8.629928012E0
1.348520958E0,-8.459210739E-1,-2.669895970E0,-8.423487759E0,8.876884193E0
1.358545958E0,-8.163301427E-1,-2.816507301E0,-8.445793718E0,8.940388123E0
1.368570958E0,-7.226509506E-1,-2.993170104E0,-8.432850321E0,8.977430379E0
1.378595958E0,-5.582361634E-1,-3.039838487E0,-8.389853405E0,8.941022637E0
1.388620958E0,-3.749670294E-1,-3.139629408E0,-8.371419473E0,8.948661190E0
1.398645958E0,-3.292346402E-1,-3.112692455E0,-8.515003116E0,9.072074065E0
1.408670958E0,-4.617506732E-1,-3.014107229E0,-8.703581668E0,9.222276830E0
1.418695958E0,-6.543464085E-1,-3.027153829E0,-8.838771633E0,9.365666741E0
1.428721958E0,-7.687806581E-1,-3.107792488E0,-9.114711095E0,9.660608480E0
1.438746958E0,-8.814851551E-1,-3.180843215E0,-9.261952756E0,9.832525031E0
1.448771958E0,-9.307424652E-1,-3.110856137E0,-9.428790191E0,9.972251095E0
1.458796958E0,-8.095369206E-1,-3.148327726E0,-9.921574230E0,1.044054370E1
1.468821958E0,-7.217478481E-1,-3.288170612E0,-1.065599153E1,1.117511259E1
1.478846958E0,-7.424683338E-1,-3.209685776E0,-1.137553586E1,1.184297927E1
1.488871958E0,-8.191092512E-1,-3.178967721E0,-1.178860656E1,1.223715736E1
1.498896958E0,-9.615382882E-1,-3.427306571E0,-1.165400366E1,1.218551548E1
1.508921958E0,-1.059170491E0,-3.564026459E0,-1.059812047E1,1.123139725E1
1.518946958E0,-7.883440530E-1,-3.530357022E0,-8.558605803E0,9.291643576E0
1.528971958E0,-4.596551773E-1,-3.103202716E0,-6.536957889E0,7.250721924E0
1.538996958E0,-1.169607583E-1,-3.045043678E0,-4.320875435E0,5.287337265E0
1.549021958E0,1.479543635E-1,-2.205624123E0,-3.176727945E0,3.870176831E0
1.559046958E0,1.413397738E-1,-4.917160454E-1,-2.685425590E0,2.733728626E0
1.569071958E0,-1.983186977E-1,1.056718168E0,-1.966291739E0,2.241045916E0
1.579097208E0,-4.541093856E-3,2.218821874E0,-7.510649103E-1,2.342496452E0
1.589122208E0,6.238827074E-1,2.862745913E0,1.423553767E0,3.257460533E0
1.599147209E0,8.907113305E-1,3.407647355E0,3.700556021E0,5.108771088E0
1.609172208E0,9.417842741E-1,4.076050470E0,5.399687308E0,6.830649169E0
1.619197208E0,1.224232711E0,3.489560414E0,7.609514995E0,8.460525756E0
1.629223208E0,1.302888871E0,2.374303431E0,9.126704319E0,9.520061340E0
1.639248208E0,1.185672078E0,1.947981768E0,1.068723087E1,1.092782480E1
1.649273208E0,7.967877978E-1,2.411927340E0,1.229089993E1,1.255063685E1
1.659298208E0,1.022323676E0,2.699201630E0,1.310762147E1,1.342164579E1
1.669323208E0,1.304509280E0,3.079286435E0,1.412761210E1,1.451802925E1
1.679348208E0,1.476563163E0,4.016085811E0,1.545779285E1,1.603909424E1
1.689373208E0,1.662289735E0,4.254563332E0,1.559876455E1,1.625379868E1
1.699398208E0,1.549479403E0,3.948993397E0,1.463936743E1,1.524160471E1
1.709423208E0,1.221278551E0,3.994830013E0,1.327545059E1,1.391717559E1
1.719448208E0,7.790298770E-1,4.253173449E0,1.157516799E1,1.235641072E1
1.729473208E0,4.589786544E-2,4.587114367E0,1.009001614E1,1.108386893E1
1.739498208E0,-7.473935898E-1,4.949378028E0,8.954499140E0,1.025855715E1
1.749523208E0,-1.512161011E0,5.061029441E0,8.066533955E0,9.642075501E0
1.759548208E0,-1.995715952E0,4.984973538E0,7.688083447E0,9.377604727E0
1.769573208E0,-2.224331997E0,4.746593958E0,7.659803973E0,9.281724190E0
1.779598208E0,-2.112216607E0,4.200597040E0,7.687146723E0,9.011032084E0
1.789623208E0,-1.806803962E0,3.316387229E0,7.681832773E0,8.559995302E0
1.799648208E0,-1.494234033E0,2.546174734E0,7.501171936E0,8.061223327E0
1.809673208E0,-1.114693604E0,1.966779105E0,7.066394615E0,7.419211193E0
1.819698208E0,-4.378017935E-1,1.489948024E0,6.345391409E0,6.532657014E0
1.829723208E0,3.497221144E-1,1.323332199E0,5.329979142E0,5.502925705E0
1.839748208E0,1.137724909E0,1.344059993E0,4.307793460E0,4.653815610E0
1.849774208E0,1.800021923E0,1.412362781E0,3.081166899E0,3.837764585E0
1.859799208E0,2.086132617E0,1.421214296E0,1.646106981E0,3.013547339E0
1.869824208E0,1.966434558E0,1.461490210E0,4.687256706E-1,2.494498398E0
1.879849208E0,1.683419234E0,1.446562853E0,-4.766708672E-1,2.270167289E0
1.889874208E0,1.370337234E0,1.231401397E0,-1.248579932E0,2.225561813E0
1.899899208E0,1.146249273E0,7.317059487E-1,-1.681130633E0,2.162286104E0
1.909924208E0,9.078256921E-1,2.292479834E-1,-1.861385089E0,2.083616226E0
1.919949208E0,6.721791007E-1,-3.468477693E-1,-1.871322432E0,2.018409216E0
1.929974208E0,2.164273784E-1,-8.538668552E-1,-1.792120142E0,1.996903608E0
1.939999208E0,-3.848276277E-1,-9.371747679E-1,-1.804288782E0,2.069262395E0
1.950024208E0,-7.824309830E-1,-9.449080029E-1,-2.039880118E0,2.380369776E0
1.960049208E0,-7.801424559E-1,-1.154004727E0,-2.440114428E0,2.809716637E0
1.970074208E0,-6.786532109E-1,-1.125552468E0,-2.935367162E0,3.216180796E0
1.980099208E0,-5.467600525E-1,-8.425329047E-1,-3.241345525E0,3.393394917E0
1.990124208E0,-3.904693868E-1,-8.326592964E-1,-3.573561514E0,3.690004030E0
2.000149208E0,-2.208906312E-1,-1.007212717E0,-3.764523391E0,3.903191834E0
2.010174208E0,-1.298765268E-1,-1.086658251E0,-3.884049835E0,4.035286506E0
2.020199208E0,-8.976762414E-2,-1.233299111E0,-4.059080388E0,4.243255651E0
2.030224208E0,-1.675599314E-1,-1.381918083E0,-4.291507795E0,4.511630866E0
2.040249208E0,-2.937126589E-1,-1.318539821E0,-4.369989123E0,4.574015667E0
2.050274208E0,-5.569268256E-1,-1.166522739E0,-4.479769428E0,4.662539749E0
2.060299208E0,-8.753455786E-1,-9.357144257E-1,-4.476828278E0,4.656584886E0
2.070324208E0,-9.557423088E-1,-6.422564131E-1,-4.326644298E0,4.477252232E0
2.080349208E0,-7.833309426E-1,-6.662256119E-1,-3.983318015E0,4.113913749E0
2.090375208E0,-4.768057917E-1,-8.545521489E-1,-3.459107530E0,3.594861339E0
2.100400208E0,-1.374838275E-1,-9.349177426E-1,-2.356521463E0,2.538930168E0
2.110425208E0,1.886256952E-1,-1.167450692E0,-9.537896311E-1,1.519287804E0
2.120450208E0,4.429983602E-1,-1.540077081E0,-3.176909208E-2,1.602839430E0
2.130475208E0,5.123223643E-1,-1.741561022E0,1.321932667E-1,1.820160449E0
2.140500208E0,3.004623923E-1,-1.587981272E0,-8.566580236E-2,1.618425407E0
2.150525208E0,-2.151605791E-1,-1.057653723E0,-1.846615022E-1,1.095000156E0
2.160550208E0,-5.560149524E-1,-5.716071376E-1,-4.732806516E-1,9.272981841E-1
2.170575208E0,-7.151842023E-1,-3.869839346E-1,-6.854421937E-1,1.063520573E0
2.180600208E0,-7.273056997E-1,-2.259326121E-1,-5.962078357E-1,9.672036545E-1
2.190625208E0,-4.705114102E-1,-9.738859266E-2,-1.765514141E-1,5.118944491E-1
2.200650208E0,-4.749408223E-2,-3.376986310E-1,5.078862280E-1,6.117552401E-1
2.210675208E0,2.736423835E-1,-8.128085840E-1,1.118498095E0,1.409459448E0
2.220700208E0,5.630793390E-1,-1.172666700E0,1.583136562E0,2.049030723E0
2.230725208E0,7.277098154E-1,-1.279180458E0,1.664638562E0,2.221910385E0
2.240750208E0,7.236603992E-1,-1.176463882E0,1.439297980E0,1.994825886E0
2.250775208E0,6.513793851E-1,-9.329954705E-1,1.163708181E0,1.627572543E0
2.260800208E0,4.509434107E-1,-5.619875908E-1,6.448736268E-1,9.669757011E-1
2.270825208E0,2.746970019E-1,-1.119861665E-1,9.964824915E-2,3.129362841E-1
2.280850208E0,1.432482685E-1,2.701282069E-1,-3.354535925E-1,4.538925284E-1
2.290875208E0,2.055179358E-2,6.026248625E-1,-6.785185057E-1,9.077259849E-1
2.300900208E0,-5.363146596E-2,7.878208002E-1,-9.402024561E-1,1.227810493E0
2.310925208E0,-8.470159650E-2,8.018579185E-1,-1.144467334E0,1.399984271E0
2.320950208E0,-1.354376674E-1,7.330054924E-1,-1.196729162E0,1.409894004E0
2.330976208E0,-1.906855962E-1,6.168733576E-1,-1.179875148E0,1.344990372E0
2.341001208E0,-1.630995291E-1,4.494579256E-1,-1.013778555E0,1.120875034E0
2.351026208E0,-8.447472453E-2,3.838854951E-1,-9.036006403E-1,9.853923937E-1
2.361051208E0,1.070201994E-1,3.659561777E-1,-8.268664598E-1,9.105412618E-1
2.371076208E0,2.365987375E-1,4.307371876E-1,-7.171756178E-1,8.693988464E-1
2.381101208E0,3.766849414E-1,4.950141674E-1,-6.075157660E-1,8.694860418E-1
2.391126208E0,4.417571425E-1,3.797781184E-1,-5.305465275E-1,7.879469589E-1
2.401151208E0,3.664561877E-1,3.241930246E-1,-3.337707639E-1,5.922788005E-1
2.411176208E0,2.341537242E-1,3.158256590E-1,-8.107632279E-2,4.014314183E-1
2.421201208E0,1.100248642E-1,2.168910626E-1,1.644213653E-1,2.935670096E-1
2.431226208E0,6.749908805E-2,1.610188705E-1,3.227575332E-1,3.669545323E-1
2.441251208E0,5.843444198E-2,2.377919349E-1,3.907793623E-1,4.611595151E-1
2.451276208E0,7.477762900E-2,3.961365813E-1,2.006331718E-1,4.502994054E-1
2.461301208E0,1.727657074E-1,5.279968491E-1,-1.070321131E-1,5.657601396E-1
2.471326208E0,2.304115793E-1,6.362872830E-1,-4.344066077E-1,8.041517912E-1
2.481351208E0,2.803805687E-1,7.304335946E-1,-6.750312263E-1,1.033350694E0
2.491376208E0,2.895155275E-1,7.622474179E-1,-8.236341190E-1,1.158970892E0
2.501401208E0,2.437275897E-1,6.811816201E-1,-8.679519206E-1,1.129934544E0
2.511426208E0,1.582461939E-1,5.443243217E-1,-7.418397582E-1,9.336257558E-1
2.521451208E0,3.489939898E-2,3.991765487E-1,-6.157293499E-1,7.346308715E-1
2.531476208E0,-7.691719830E-2,2.489712265E-1,-5.111647618E-1,5.737528568E-1
2.541501208E0,-1.569296202E-1,7.788900554E-2,-4.304503816E-1,4.647377044E-1
2.551526208E0,-2.154795447E-1,4.454116523E-3,-4.302626860E-1,4.812247420E-1
2.561551208E0,-2.284228682E-1,7.039638340E-2,-4.870765722E-1,5.425645074E-1
2.571576208E0,-2.446866792E-1,1.790282947E-1,-5.887959051E-1,6.622713335E-1
2.581601208E0,-2.124794114E-1,2.691923600E-1,-6.849258846E-1,7.659866150E-1
2.591627208E0,-1.363765841E-1,3.065157223E-1,-8.127349091E-1,8.792545099E-1
2.601652208E0,-9.476860151E-2,3.206250536E-1,-8.771384811E-1,9.386977298E-1
2.611677208E0,-1.090102261E-1,3.586956900E-1,-8.969178575E-1,9.721149472E-1
2.621702208E0,-1.743678445E-1,4.077088058E-1,-8.879353648E-1,9.925018024E-1
2.631727208E0,-2.244079506E-1,3.892599633E-1,-7.589919806E-1,8.820153479E-1
2.641752208E0,-2.262428069E-1,3.246195790E-1,-6.822420126E-1,7.886810778E-1
2.651777208E0,-1.720568056E-1,2.372811806E-1,-6.853848910E-1,7.454249472E-1
2.661802208E0,-1.116344565E-1,2.295877066E-1,-7.396540689E-1,7.824710273E-1
2.671827208E0,-4.992827810E-2,2.247742787E-1,-8.716602248E-1,9.015585709E-1
2.681852208E0,-5.869215801E-3,1.954119006E-1,-1.104751291E0,1.121916072E0
2.691877208E0,-2.107190341E-4,1.686641049E-1,-1.385421150E0,1.395650167E0
2.701902208E0,-7.213746496E-2,1.482541063E-1,-1.718225954E0,1.726118050E0
2.711927208E0,-1.975396293E-1,1.173945487E-1,-2.097721944E0,2.110270301E0
2.721952208E0,-3.275654063E-1,5.600901693E-2,-2.411788761E0,2.434576171E0
2.731977208E0,-4.246203422E-1,-6.023070663E-2,-2.757435805E0,2.790588180E0
2.742002208E0,-4.728372864E-1,-2.195901373E-1,-2.997558147E0,3.042556454E0
2.752027208E0,-4.605392763E-1,-4.438241333E-1,-3.130349584E0,3.195021879E0
2.762052208E0,-4.459605597E-1,-6.376885682E-1,-3.227945461E0,3.320415550E0
2.772077208E0,-4.167323752E-1,-7.390047356E-1,-3.360615860E0,3.466054361E0
2.782102208E0,-4.006258542E-1,-6.853419140E-1,-3.471645715E0,3.561252390E0
2.792127208E0,-4.357326101E-1,-5.716685334E-1,-3.576886826E0,3.648395152E0
2.802152208E0,-4.353123415E-1,-4.635926923E-1,-3.714630854E0,3.768673162E0
2.812177208E0,-3.866781253E-1,-4.394229341E-1,-3.926573126E0,3.969960831E0
2.822202208E0,-3.757335994E-1,-4.475099257E-1,-4.181204165E0,4.221837176E0
2.832227208E0,-4.312922345E-1,-4.068606672E-1,-4.357864337E0,4.398014344E0
2.842252208E0,-5.786385606E-1,-2.600347432E-1,-4.475006286E0,4.519747992E0
2.852277208E0,-7.627091286E-1,-1.683960101E-1,-4.396531389E0,4.465374641E0
2.862302208E0,-9.936525853E-1,-1.110017878E-1,-4.024045041E0,4.146396671E0
2.872327208E0,-1.137645241E0,4.483761907E-2,-3.326602022E0,3.516038697E0
2.882353208E0,-1.191284162E0,3.252443540E-1,-2.230329779E0,2.549374976E0
2.892378208E0,-1.079652337E0,5.660873660E-1,-9.386833495E-1,1.538580679E0
2.902403208E0,-6.983015366E-1,8.891735128E-1,3.262927598E-1,1.176741916E0
2.912428208E0,-3.077682690E-1,1.522006553E0,1.962008654E0,2.502139727E0
2.922453208E0,-6.980581462E-2,2.258989906E0,4.095999708E0,4.678153680E0
2.932478208E0,-8.547021300E-3,2.814218408E0,6.775127846E0,7.336365287E0
2.942503208E0,2.909839095E-1,3.171027202E0,9.847674780E0,1.034972385E1
2.952528208E0,2.015504538E0,3.487744269E0,1.176555450E1,1.243603197E1
2.962553208E0,2.028278072E0,3.143686206E0,8.877878981E0,9.633971668E0
2.972578208E0,1.805446239E0,3.507157609E0,9.230992919E0,1.003847702E1
2.982603208E0,2.548330310E0,6.363365750E0,1.186981035E1,1.370688910E1
2.992628208E0,2.889338465E0,8.287003806E0,1.273616072E1,1.546714255E1
3.002653208E0,1.964649110E0,8.558368991E0,1.385479038E1,1.640307112E1
3.012678208E0,1.307308927E0,8.467069981E0,1.608876590E1,1.822769099E1
3.022703208E0,1.864838893E0,7.896297534E0,1.895997682E1,2.062304197E1
3.032728208E0,3.309596565E0,6.855929350E0,2.008284454E1,2.147737976E1
3.042753208E0,5.199974488E0,6.028560029E0,1.948909020E1,2.105250359E1
3.052778208E0,7.182001085E0,5.206716328E0,1.668866449E1,1.889980310E1
3.062803208E0,8.081266015E0,4.330646133E0,1.408458712E1,1.680586061E1
3.072828208E0,7.565296011E0,4.161624178E0,1.167556117E1,1.452141688E1
3.082853208E0,5.844428869E0,4.964794212E0,9.871028559E0,1.249974941E1
3.092878208E0,3.692855823E0,4.938389356E0,7.819075695E0,9.958052936E0
3.102903208E0,1.677182886E0,3.655266705E0,5.181815375E0,6.559354213E0
3.112928208E0,-1.370557382E-1,2.179820068E0,3.102292889E0,3.794024377E0
3.122953208E0,-1.965587735E0,1.187132712E0,4.836789891E0,5.354190477E0
3.132978208E0,-2.264442435E0,2.010720053E-1,6.949811659E0,7.312182410E0
3.143003208E0,-8.897179616E-1,-1.889525399E0,4.686503584E0,5.130810865E0
3.153028208E0,-9.316346041E-1,-5.384160027E0,-5.003988683E-2,5.464396236E0
3.163053208E0,-2.860273710E-1,-5.372667325E0,-2.285795882E0,5.845701724E0
3.173079208E0,-3.400642683E-1,-3.869901912E0,-3.826107436E0,5.452603289E0
3.183104208E0,-1.713173960E0,-3.984491551E0,-6.108844639E0,7.491937050E0
3.193129208E0,-2.692624974E0,-3.467630432E0,-8.632630384E0,9.684884997E0
3.203154208E0,-3.239586390E0,-2.517603191E0,-1.052789073E1,1.129910302E1
3.213179208E0,-3.342208825E0,-1.921959320E0,-1.128196287E1,1.192254057E1
3.223204208E0,-2.849383563E0,-1.717978032E0,-1.099840448E1,1.149066301E1
3.233229208E0,-2.236631031E0,-2.066510969E0,-1.033178214E1,1.077119808E1
3.243254208E0,-1.807942415E0,-2.259670522E0,-9.202393602E0,9.646699677E0
3.253279208E0,-1.058434911E0,-2.437309811E0,-8.572026333E0,8.974430290E0
3.263304208E0,-2.728967539E-1,-2.723816653E0,-7.876705853E0,8.338833545E0
3.273329208E0,2.613801145E-1,-2.679200644E0,-7.569785503E0,8.034182486E0
3.283354208E0,4.151294341E-1,-2.594118978E0,-7.230770372E0,7.693232473E0
3.293379208E0,4.381387393E-1,-2.994807325E0,-6.782030484E0,7.426760664E0
3.303404208E0,4.370713301E-1,-3.425817870E0,-6.532225152E0,7.388993495E0
3.313429208E0,3.756561238E-1,-3.768658834E0,-6.584438449E0,7.595968445E0
3.323454208E0,4.000082421E-1,-4.192128225E0,-6.613596175E0,7.840510188E0
3.333479208E0,4.294827405E-1,-4.601596751E0,-6.701299147E0,8.140427405E0
3.343504208E0,1.266489369E-1,-4.527882365E0,-7.010317478E0,8.346395018E0
3.353529208E0,-1.181803048E-1,-4.272287997E0,-7.280579293E0,8.442348380E0
3.363554208E0,-1.219571310E-1,-4.276298895E0,-7.587681491E0,8.710597924E0
3.373579208E0,-6.073005885E-2,-4.407626189E0,-8.017978091E0,9.149799420E0
3.383604208E0,-9.490191802E-2,-4.464398560E0,-8.489596379E0,9.592346301E0
3.393629208E0,-6.177407920E-2,-4.577358288E0,-8.756616499E0,9.881009940E0
3.403654208E0,1.358746737E-2,-4.753602138E0,-8.970958468E0,1.015258655E1
3.413679208E0,4.265324548E-2,-5.049220989E0,-9.029128323E0,1.034512495E1
3.423704208E0,1.069391423E-1,-5.295527347E0,-8.941780862E0,1.039276146E1
3.433729208E0,4.500704214E-2,-5.260921771E0,-8.741700252E0,1.020277643E1
3.443754208E0,-9.416648448E-3,-5.087291041E0,-8.574010878E0,9.969668066E0
3.453779208E0,-1.038471347E-1,-4.936041698E0,-8.503967081E0,9.833247073E0
3.463804208E0,-2.988700493E-1,-4.650884686E0,-8.511287211E0,9.703713807E0
3.473829208E0,-4.054469566E-1,-4.500953305E0,-8.605823239E0,9.720244931E0
3.483854208E0,-4.948492759E-1,-4.452278743E0,-8.923623503E0,9.984924548E0
3.493880208E0,-5.324737698E-1,-4.308492202E0,-9.062276773E0,1.004845728E1
3.503905208E0,-4.552924235E-1,-4.394514100E0,-9.066338834E0,1.008551165E1
3.513930208E0,-3.364296390E-1,-4.504441754E0,-8.941638774E0,1.001778840E1
3.523955208E0,-2.909842019E-1,-4.370278561E0,-8.616135389E0,9.665495100E0
3.533980208E0,-1.667583512E-1,-4.191842004E0,-8.192730317E0,9.204356457E0
3.544005208E0,-8.410284162E-2,-3.820231569E0,-7.918539757E0,8.792298585E0
3.554030208E0,-1.077244143E-1,-3.276990736E0,-7.323855706E0,8.024284095E0
3.564055208E0,-1.360473128E-1,-2.591856106E0,-6.474046526E0,6.974919739E0
3.574080208E0,2.101555087E-1,-2.271452662E0,-5.394073981E0,5.856594287E0
3.584105583E0,4.631050345E-1,-2.095716934E0,-4.142490919E0,4.665482479E0
3.594130583E0,1.458379089E-1,-9.873970878E-1,-2.565565855E0,2.752880284E0
3.604155583E0,-1.198966599E0,1.673331032E0,-1.271413894E0,2.419514608E0
3.614180583E0,-2.884242032E0,4.901137914E0,-1.483140403E-1,5.688761025E0
3.624205583E0,-3.004405529E0,7.358546067E0,1.696022322E0,8.127185523E0
3.634230583E0,-9.661851436E-1,7.667415293E0,4.218556763E0,8.804487048E0
3.644255583E0,7.680757762E-1,7.311070184E0,7.481214219E0,1.048857730E1
3.654280583E0,1.450818749E0,6.928698533E0,1.211607870E1,1.403250161E1
3.664305583E0,1.571205464E0,3.963693005E0,1.545424710E1,1.603163443E1
3.674330583E0,8.994976491E-1,1.808472465E0,1.585708635E1,1.598520742E1
3.684355583E0,6.087715287E-2,1.608659073E0,1.506575576E1,1.515151763E1
3.694380583E0,-4.836796322E-1,1.539949611E0,1.372179897E1,1.381640900E1
3.704405583E0,-7.057552747E-1,2.076883053E0,1.263513955E1,1.282412902E1
3.714430583E0,-2.084270717E-1,3.072607160E0,1.240175846E1,1.277841811E1
3.724455583E0,8.055391793E-1,3.874953321E0,1.247332955E1,1.308617998E1
3.734480583E0,1.823285071E0,3.877308580E0,1.233947742E1,1.306218180E1
3.744505583E0,1.921870296E0,4.187533191E0,1.169399627E1,1.256895256E1
3.754530583E0,1.597538400E0,4.693201862E0,1.111634165E1,1.217174287E1
3.764555583E0,1.319518060E0,4.965804026E0,9.955593331E0,1.120331094E1
3.774580583E0,9.518115181E-1,5.164845586E0,8.623526854E0,1.009687033E1
3.784605583E0,9.526905008E-1,5.017026805E0,6.911313592E0,8.593278345E0
3.794630583E0,9.526213574E-1,4.582814324E0,5.360178841E0,7.116262488E0
3.804655583E0,5.784872639E-1,4.076028543E0,3.855375089E0,5.640263582E0
3.814680583E0,-5.841426909E-2,3.393884471E0,3.019900358E0,4.543309609E0
3.824705583E0,-6.754621661E-1,2.861106353E0,2.595632823E0,3.921669090E0
3.834731583E0,-9.612543328E-1,2.373471957E0,2.260040066E0,3.415429713E0
3.844756583E0,-8.658182716E-1,1.885024505E0,2.286112216E0,3.086951203E0
3.854781583E0,-7.074965756E-1,1.346645632E0,2.269230720E0,2.731924948E0
3.864806583E0,-9.572666779E-1,1.182998731E0,2.057349259E0,2.559009860E0
3.874831583E0,-1.157295979E0,9.355606440E-1,1.681575606E0,2.245507564E0
3.884856583E0,-8.704359640E-1,1.980630282E-1,1.004766242E0,1.344039780E0
3.894881583E0,-5.988453685E-1,-1.929274186E-1,2.087315655E-1,6.628767839E-1
3.904906583E0,-6.001368722E-1,-2.100647306E-1,-4.089191794E-1,7.559803911E-1
3.914931583E0,-6.665858003E-1,-3.275923035E-1,-8.418119431E-1,1.122631148E0
3.924956583E0,-8.388215308E-1,-5.101014456E-1,-1.239172347E0,1.580940590E0
3.934981583E0,-9.006938432E-1,-5.491985607E-1,-1.773428348E0,2.063471968E0
3.945006583E0,-6.525897588E-1,-5.178583619E-1,-2.372578502E0,2.514593292E0
3.955031583E0,-3.058412459E-1,-5.084458065E-1,-2.912147868E0,2.971979343E0
3.965056583E0,9.032632560E-2,-5.133089358E-1,-3.381661159E0,3.421589850E0
3.975081583E0,4.855326149E-1,-5.637242138E-1,-3.600550507E0,3.676614049E0
3.985106583E0,7.406340623E-1,-7.255643257E-1,-3.495057381E0,3.645601254E0
3.995131583E0,7.807254964E-1,-8.184985095E-1,-3.608707373E0,3.781830379E0
4.005156583E0,7.320817785E-1,-8.987223083E-1,-3.731568484E0,3.907460667E0
4.015181583E0,6.621452786E-1,-1.104601894E0,-4.034117455E0,4.234700149E0
4.025206583E0,5.626794626E-1,-1.176357171E0,-4.360103236E0,4.550925686E0
4.035231583E0,3.625155298E-1,-1.055166317E0,-4.574559810E0,4.708650648E0
4.045256583E0,2.114972985E-1,-8.174503961E-1,-4.661718991E0,4.737571130E0
4.055281583E0,1.545576972E-1,-5.687820554E-1,-4.603156788E0,4.640738467E0
4.065306583E0,2.027694520E-1,-5.675880539E-1,-4.356730562E0,4.398223828E0
4.075331583E0,1.885256347E-1,-6.471791840E-1,-4.004693096E0,4.061028146E0
4.085356583E0,5.351517946E-2,-3.598589936E-1,-3.396688503E0,3.416116971E0
4.095381583E0,-1.834278859E-1,-4.804657102E-3,-2.883808753E0,2.889640427E0
4.105406583E0,-3.976989573E-1,9.915328234E-2,-2.399777995E0,2.434528755E0
4.115431583E0,-3.424011080E-1,1.023408920E-1,-1.905529228E0,1.938750582E0
4.125456583E0,-1.675084028E-1,1.337363470E-1,-1.287065136E0,1.304791608E0
4.135481583E0,2.670291826E-2,1.975569516E-2,-4.431505340E-1,4.443936646E-1
4.145506583E0,2.727799192E-1,-2.109333345E-1,3.714104605E-1,5.068012294E-1
4.155531583E0,4.889568906E-1,-4.800154746E-1,1.257936062E0,1.432444356E0
4.165556583E0,6.075276066E-1,-8.032086253E-1,1.903832366E0,2.153790047E0
4.175581583E0,6.480453028E-1,-8.674736184E-1,2.197236877E0,2.449555692E0
4.185606583E0,6.447620912E-1,-6.275994900E-1,2.167680371E0,2.347006064E0
4.195631583E0,6.330910487E-1,-3.050895864E-1,1.652858176E0,1.796057928E0
4.205656583E0,6.898669280E-1,-4.362432182E-2,9.275145829E-1,1.156763918E0
4.215682583E0,6.517784576E-1,2.830762812E-1,2.033971506E-1,7.391331001E-1
4.225707583E0,4.997941200E-1,6.205652896E-1,-3.748228955E-1,8.805609826E-1
4.235732583E0,3.312301487E-1,7.560818213E-1,-8.318740153E-1,1.171916170E0
4.245757583E0,1.849119093E-1,8.422247565E-1,-1.032497832E0,1.345208804E0
4.255782583E0,3.574139804E-2,7.639624062E-1,-1.076932577E0,1.320870842E0
4.265807583E0,-1.041446118E-1,5.262947246E-1,-1.094562517E0,1.218974709E0
4.275832583E0,-2.216036260E-1,3.528698167E-1,-1.027078047E0,1.108383774E0
4.285857583E0,-2.918020812E-1,2.039225230E-1,-1.007561211E0,1.068603034E0
4.295882583E0,-2.164681627E-1,7.345272303E-3,-9.625908601E-1,9.866577839E-1
4.305907583E0,-8.826956749E-2,-7.850530207E-2,-8.865788108E-1,8.944141025E-1
4.315932583E0,-7.018999496E-2,7.136526704E-3,-7.418953067E-1,7.452423844E-1
4.325957583E0,-6.659381116E-2,8.580993623E-2,-5.699702096E-1,5.802276456E-1
4.335982583E0,-5.078262940E-2,6.762158722E-2,-4.106850386E-1,4.193015090E-1
4.346007583E0,-1.016589604E-1,1.168741465E-1,-2.680650169E-1,3.096012978E-1
4.356032583E0,-1.413833356E-1,1.337208518E-1,-1.756591290E-1,2.621576690E-1
4.366057583E0,-2.013001198E-1,6.608406186E-2,-1.232031727E-1,2.450874604E-1
4.376082583E0,-2.567771863E-1,4.030544221E-2,-5.620869935E-2,2.659294455E-1
4.386107583E0,-3.554068505E-1,1.410468283E-1,-1.647131413E-1,4.163395923E-1
4.396132583E0,-4.369212759E-1,2.199564654E-1,-3.029120833E-1,5.753579566E-1
4.406157583E0,-4.292091274E-1,2.470904696E-1,-4.090215057E-1,6.423182757E-1
4.416182583E0,-3.884933203E-1,3.051568294E-1,-4.359040797E-1,6.588323892E-1
4.426207583E0,-2.877238675E-1,3.695811591E-1,-3.684868526E-1,5.959511873E-1
4.436232583E0,-2.017980102E-1,4.126611051E-1,-2.100933820E-1,5.051245923E-1
4.446257583E0,-7.448541440E-2,4.156507865E-1,-7.219206333E-2,4.283985846E-1
4.456282583E0,-3.030268349E-2,4.315455651E-1,-1.254461646E-2,4.327900124E-1
4.466307583E0,-4.476321325E-2,4.521587545E-1,-2.832391262E-3,4.543779340E-1
4.476332583E0,-4.502056383E-2,4.252358347E-1,-3.223043740E-2,4.288253344E-1
4.486357583E0,-6.459908836E-2,4.462372792E-1,-1.719660276E-1,4.825692346E-1
4.496382583E0,-6.637518011E-2,4.454049280E-1,-3.057935911E-1,5.443353147E-1
4.506407583E0,-3.631581388E-2,4.630070937E-1,-3.117261761E-1,5.593457035E-1
4.516432583E0,-1.672903016E-2,4.785200492E-1,-2.571886110E-1,5.435138264E-1
4.526457583E0,5.158267468E-3,4.383271658E-1,-1.452500993E-1,4.617953046E-1
4.536482583E0,-6.262806505E-3,4.004956806E-1,-1.878593445E-2,4.009849427E-1
4.546507583E0,1.075522229E-4,3.649814469E-1,2.067283094E-2,3.655664564E-1
4.556532583E0,5.757965215E-2,2.997382146E-1,-3.525987983E-2,3.072485521E-1
4.566557583E0,4.528920684E-2,2.756558722E-1,-1.211256570E-1,3.044810288E-1
4.576586125E0,-4.346345030E-2,3.424968562E-1,-2.179999870E-1,4.083101301E-1
4.586611125E0,-6.314196222E-2,3.240918678E-1,-3.187586224E-1,4.589439024E-1
4.596636125E0,-9.317983992E-2,3.118858051E-1,-3.921522886E-1,5.096456175E-1
4.606662125E0,-8.708905119E-2,3.234589067E-1,-4.248721379E-1,5.410420508E-1
4.616687125E0,-6.326376703E-2,3.293631327E-1,-4.954644030E-1,5.983037290E-1
4.626712125E0,-4.584056273E-2,2.930367208E-1,-5.329427165E-1,6.099178764E-1
4.636737125E0,-7.670830652E-2,2.587164885E-1,-6.280745763E-1,6.835905639E-1
4.646762125E0,-1.397877035E-1,2.908717892E-1,-7.432653093E-1,8.103026100E-1
4.656787125E0,-1.516591593E-1,2.241164669E-1,-8.243416321E-1,8.676219325E-1
4.666812125E0,-1.104743324E-1,1.249678624E-1,-9.672709715E-1,9.815470835E-1
4.676837125E0,-3.468151711E-2,1.026282826E-1,-1.021132014E0,1.026862192E0
4.686862125E0,-5.470764600E-2,9.601829767E-2,-1.075985913E0,1.081646026E0
4.696887125E0,-1.332164199E-1,4.871110708E-2,-1.168980616E0,1.177554698E0
4.706912125E0,-1.987262486E-1,-4.627398759E-2,-1.261970056E0,1.278359036E0
4.716937125E0,-2.288507382E-1,-1.525699362E-1,-1.446757273E0,1.472669974E0
4.726962125E0,-2.101233490E-1,-2.555373573E-1,-1.649952695E0,1.682793825E0
4.736987125E0,-1.775189091E-1,-3.889632171E-1,-1.822125714E0,1.871616271E0
4.747012125E0,-1.547607417E-1,-5.031347805E-1,-2.061725315E0,2.127864369E0
4.757037125E0,-1.713258306E-1,-5.809445563E-1,-2.252102471E0,2.332126638E0
4.767062125E0,-1.816451430E-1,-6.521358687E-1,-2.461149786E0,2.552554489E0
4.777087125E0,-1.557106950E-1,-8.146016327E-1,-2.642862538E0,2.769935745E0
4.787112125E0,-1.487957412E-1,-9.824520975E-1,-2.926236150E0,3.090341454E0
4.797137125E0,-2.376947249E-1,-1.040816665E0,-3.263077286E0,3.433288728E0
4.807162125E0,-3.294294986E-1,-9.754415783E-1,-3.676485373E0,3.817925453E0
4.817187125E0,-4.699149211E-1,-7.875275624E-1,-4.151828338E0,4.251905248E0
4.827212125E0,-5.938910957E-1,-4.755020088E-1,-4.541698458E0,4.604979227E0
4.837237125E0,-6.964679229E-1,-2.191206059E-1,-4.792980212E0,4.848271931E0
4.847262125E0,-7.711870797E-1,3.971604288E-2,-4.654243911E0,4.717869568E0
4.857287125E0,-7.556267618E-1,2.811838299E-1,-4.164689289E0,4.242012850E0
4.867312125E0,-6.744936479E-1,3.196283957E-1,-3.373236490E0,3.454826828E0
4.877337125E0,-5.419680400E-1,3.136148268E-1,-2.469239994E0,2.547396664E0
4.887362125E0,-2.808069038E-1,2.179833224E-1,-1.538956169E0,1.579479451E0
4.897387125E0,-1.812139839E-2,1.048288822E-1,-5.770786697E-1,5.868025823E-1
4.907412125E0,1.065353190E-1,1.086974001E-1,3.434180850E-1,3.756339709E-1
4.917437125E0,1.620909575E-1,2.475091302E-1,1.368274190E0,1.399895892E0
4.927462125E0,1.494758821E-1,3.223219156E-1,2.336759044E0,2.363615300E0
4.937487125E0,3.302463546E-2,5.288692537E-1,3.229872118E0,3.273051667E0
4.947512125E0,-8.718395881E-2,9.788633689E-1,4.060728718E0,4.177953118E0
4.957537125E0,-1.208130502E-1,1.502914809E0,4.904819906E0,5.131335793E0
4.967562125E0,-8.913349360E-2,2.024881717E0,5.636064509E0,5.989433521E0
4.977587125E0,1.335148106E-1,2.557139725E0,6.523298208E0,7.007867671E0
4.987612125E0,4.445749158E-1,3.139115730E0,7.827074102E0,8.444808074E0
4.997637125E0,6.708995837E-1,3.720843813E0,9.473193946E0,1.019981316E1
5.007662125E0,1.006250338E0,3.953386410E0,1.103359536E1,1.176358918E1
5.017687125E0,1.351740603E0,4.145704841E0,1.209454809E1,1.285660004E1
5.027712125E0,1.523596703E0,4.522442115E0,1.273417851E1,1.359901217E1
5.037737125E0,1.323839298E0,4.652380403E0,1.305828032E1,1.392536818E1
5.047762125E0,8.920789211E-1,4.526135801E0,1.343776345E1,1.420757532E1
5.057787125E0,4.811128508E-1,4.154764810E0,1.418875527E1,1.479237359E1
5.067813125E0,5.692548028E-1,3.568122726E0,1.514902946E1,1.557397330E1
5.077837125E0,1.401173257E0,2.952834257E0,1.586582910E1,1.619898299E1
5.087863125E0,2.762151584E0,2.523523497E0,1.551130189E1,1.595613169E1
5.097888125E0,4.133258166E0,2.448931737E0,1.419112573E1,1.498229419E1
5.107913125E0,4.873607761E0,2.689993142E0,1.231392977E1,1.351373309E1
5.117938125E0,4.381034514E0,3.270535995E0,1.010768643E1,1.149152705E1
5.127963125E0,3.172874629E0,3.506091077E0,7.736992482E0,9.067571931E0
5.137988125E0,1.398964471E0,2.903098717E0,5.494053183E0,6.369435150E0
5.148013125E0,-2.391951936E-1,1.543489223E0,3.737177718E0,4.050440793E0
5.158038125E0,-1.562120207E0,2.260007322E-2,2.581365032E0,3.017312667E0
5.168063125E0,-2.712140056E0,-1.064065195E0,1.592436558E0,3.320209724E0
5.178088125E0,-3.315420684E0,-1.767736668E0,5.038463867E-1,3.790879637E0
5.188113125E0,-3.603976976E0,-2.096916490E0,-7.328426474E-1,4.233528925E0
5.198138125E0,-3.566967024E0,-2.623571988E0,-2.425315125E0,5.048617354E0
5.208163125E0,-3.227872370E0,-3.015500329E0,-4.191026902E0,6.089097533E0
5.218188125E0,-2.972281511E0,-2.691497631E0,-5.730773615E0,6.994310767E0
5.228213125E0,-2.514431954E0,-2.372854783E0,-7.283747315E0,8.062616376E0
5.238238125E0,-1.823735452E0,-2.245403608E0,-8.363698225E0,8.849819002E0
5.248263125E0,-1.059137892E0,-2.215238700E0,-9.198308153E0,9.520395393E0
5.258288125E0,2.048118845E-2,-2.533514050E0,-9.711469154E0,1.003652061E1
5.268313125E0,1.281688329E0,-3.083529174E0,-9.691519039E0,1.025067892E1
5.278338125E0,1.947375704E0,-3.536645703E0,-9.418877991E0,1.024770206E1
5.288363125E0,1.900386748E0,-3.673376409E0,-8.776315768E0,9.702004046E0
5.298388125E0,1.242429538E0,-3.634742686E0,-7.752526780E0,8.651974169E0
5.308413125E0,3.534816547E-1,-3.661387863E0,-6.812882148E0,7.742484971E0
5.318438125E0,-4.034664316E-1,-3.761228485E0,-6.137034066E0,7.209217156E0
5.328463125E0,-9.059140912E-1,-3.610997728E0,-5.818240945E0,6.907381025E0
5.338488125E0,-1.049544000E0,-3.370749962E0,-5.758092391E0,6.754193209E0
5.348513125E0,-8.879583883E-1,-3.240473997E0,-6.001356443E0,6.877893644E0
5.358538125E0,-5.565648830E-1,-3.212336318E0,-6.466940405E0,7.242250154E0
5.368563125E0,-1.978782561E-1,-3.155094416E0,-7.042757830E0,7.719728909E0
5.378588125E0,-4.240327701E-2,-2.974485619E0,-7.634404253E0,8.193502977E0
5.388613125E0,-4.469582409E-2,-2.819864187E0,-8.088444641E0,8.566012402E0
5.398638125E0,-1.364375413E-1,-2.756422774E0,-8.372553833E0,8.815675777E0
5.408663125E0,-2.249999812E-1,-2.688952630E0,-8.585309452E0,8.999368291E0
5.418688125E0,-1.859005272E-1,-2.811984772E0,-8.643396862E0,9.091211508E0
5.428713125E0,-5.920598209E-2,-3.316188131E0,-8.506077926E0,9.129839580E0
5.438738125E0,-1.453038206E-1,-3.625081331E0,-8.299143210E0,9.057488939E0
5.448763125E0,-2.539617520E-1,-3.824217616E0,-8.166516080E0,9.021148587E0
5.458788125E0,-4.505453615E-1,-3.885809554E0,-8.215584744E0,9.099359302E0
5.468813125E0,-7.541662004E-1,-3.666936870E0,-8.382284769E0,9.180299049E0
5.478838125E0,-8.980083632E-1,-3.556848125E0,-8.651206988E0,9.396859579E0
5.488863125E0,-9.519261235E-1,-3.517165996E0,-8.965087278E0,9.677262521E0
5.498888125E0,-9.008914060E-1,-3.463694963E0,-9.123790067E0,9.800629230E0
5.508913125E0,-8.065608341E-1,-3.486969513E0,-9.175603999E0,9.848919002E0
5.518938125E0,-6.243622521E-1,-3.567554377E0,-9.098477470E0,9.792832314E0
5.528963125E0,-3.727962506E-1,-3.674570995E0,-8.890869155E0,9.627512834E0
5.538988125E0,-4.330762200E-1,-3.433064032E0,-8.313973503E0,9.005311714E0
5.549013125E0,-7.526623696E-1,-2.949977599E0,-7.429252353E0,8.028864116E0
5.559038125E0,-8.966168721E-1,-2.757039656E0,-6.913330881E0,7.496621462E0
5.569063125E0,-9.381604622E-1,-2.634481139E0,-6.580872817E0,7.150421173E0
5.579087458E0,-8.205463506E-1,-2.409076822E0,-6.148178274E0,6.654099754E0
5.589112458E0,-3.132867980E-1,-2.051455266E0,-5.691596686E0,6.058125961E0
5.599137458E0,1.872020992E-1,-1.375575316E0,-5.171112632E0,5.354218703E0
5.609162458E0,1.935383065E-1,2.324934804E-1,-4.613077759E0,4.622985691E0
5.619188458E0,-5.021042088E-1,2.007649096E0,-3.732725063E0,4.268020610E0
5.629213458E0,-1.149583793E0,3.427382877E0,-2.675906907E0,4.497663178E0
5.639238458E0,-1.023258208E0,4.304455577E0,-9.289202535E-1,4.520872483E0
5.649263458E0,-2.147898656E-1,3.585914342E0,1.902635441E0,4.065087696E0
5.659288458E0,4.701425971E-1,1.973858329E0,5.178093622E0,5.561457033E0
5.669313458E0,6.366438170E-1,9.736245561E-1,7.786804912E0,7.873219854E0
5.679338458E0,3.436167441E-1,5.734764925E-1,8.937449829E0,8.962419160E0
5.689363458E0,5.221848629E-1,5.282415551E-1,8.990153707E0,9.020785989E0
5.699388458E0,5.781962188E-1,1.365290941E0,8.625542389E0,8.752046145E0
5.709413458E0,2.098108153E-1,3.073405890E0,9.011155152E0,9.523169720E0
5.719438458E0,1.830090791E-2,4.591725774E0,1.051773178E1,1.147636538E1
5.729463458E0,1.192001688E-1,5.308266676E0,1.245819227E1,1.354246870E1
5.739488458E0,5.412679821E-1,5.471551927E0,1.393238761E1,1.497805982E1
5.749513458E0,9.848039939E-1,5.166734236E0,1.414564141E1,1.509185716E1
5.759538458E0,1.393137428E0,4.798514894E0,1.322029497E1,1.413303847E1
5.769563458E0,1.585516524E0,4.567007546E0,1.182015814E1,1.277057395E1
5.779588458E0,1.552831905E0,4.344777099E0,1.064037011E1,1.159766576E1
5.789613458E0,1.385422904E0,4.004545162E0,9.867934213E0,1.073926926E1
5.799638458E0,1.164957293E0,3.452186181E0,9.312319502E0,9.999700467E0
5.809663458E0,9.762734909E-1,2.900417769E0,8.865822607E0,9.379144079E0
5.819688458E0,7.211547942E-1,2.623660281E0,8.573441359E0,8.994862658E0
5.829713458E0,5.950424856E-1,2.343633908E0,8.481608498E0,8.819545236E0
5.839738458E0,5.794808520E-1,2.073324730E0,8.535474803E0,8.802772495E0
5.849763458E0,5.606300135E-1,2.028754621E0,8.543956189E0,8.799394223E0
5.859788458E0,4.931167094E-1,2.010287944E0,8.298490076E0,8.552739868E0
5.869813458E0,4.350142796E-1,1.913200775E0,7.341086866E0,7.598758517E0
5.879838458E0,5.322939679E-1,1.919523077E0,5.829712597E0,6.160637522E0
5.889863458E0,8.077378786E-1,2.026555483E0,4.268289671E0,4.793502302E0
5.899888458E0,1.058159507E0,1.944620204E0,2.980694193E0,3.712921646E0
5.909913458E0,9.710209371E-1,1.928971301E0,2.028006177E0,2.962536243E0
5.919938458E0,7.717431499E-1,1.698926927E0,1.456501073E0,2.367136576E0
5.929963458E0,5.863683604E-1,1.231800469E0,8.708597410E-1,1.618504538E0
5.939988458E0,3.751962037E-1,6.477756000E-1,2.648508024E-1,7.940600523E-1
5.950013458E0,7.609361798E-2,1.300847608E-1,-2.701273298E-1,3.093235491E-1
5.960038458E0,-2.494207312E-1,-2.595602417E-1,-8.253321505E-1,9.004195571E-1
5.970063458E0,-5.195359281E-1,-6.566592747E-1,-1.421304343E0,1.649613597E0
5.980088458E0,-7.901767896E-1,-8.800571188E-1,-1.905025783E0,2.242320924E0
5.990113458E0,-9.837063984E-1,-8.111105525E-1,-2.384990972E0,2.704396521E0
6.000138458E0,-9.699923388E-1,-8.249067655E-1,-2.891495503E0,3.159446558E0
6.010163458E0,-8.589312749E-1,-9.243418837E-1,-3.499253343E0,3.719804405E0
6.020188458E0,-6.944318493E-1,-1.026801474E0,-4.149592363E0,4.330782104E0
6.030213458E0,-5.591565882E-1,-1.178488188E0,-4.779860229E0,4.954649767E0
6.040238458E0,-5.496519392E-1,-1.260778978E0,-5.448498110E0,5.619413897E0
6.050263458E0,-5.363791251E-1,-1.335295602E0,-5.848072270E0,6.022513278E0
6.060288458E0,-5.713329763E-1,-1.444395875E0,-6.029808995E0,6.226660206E0
6.070313458E0,-6.421266049E-1,-1.424335540E0,-5.990654284E0,6.191041678E0
6.080338458E0,-7.287892114E-1,-1.291558136E0,-5.980156778E0,6.161292983E0
6.090363458E0,-7.743466227E-1,-1.142998221E0,-5.813769579E0,5.975447627E0
6.100388458E0,-7.702039435E-1,-9.858247715E-1,-5.593685060E0,5.731873790E0
6.110413458E0,-7.506442762E-1,-8.143867475E-1,-5.361978030E0,5.475171321E0
6.120438458E0,-7.133226682E-1,-6.004950142E-1,-5.099472545E0,5.184018107E0
6.130463458E0,-5.993604351E-1,-4.365800178E-1,-4.793633931E0,4.850645452E0
6.140488458E0,-4.138015314E-1,-3.473047292E-1,-4.527513113E0,4.559630168E0
6.150513458E0,-2.407107919E-1,-2.029153401E-1,-4.181588911E0,4.193423678E0
6.160538458E0,-1.573566497E-1,-1.228616953E-2,-3.554911235E0,3.558413404E0
6.170563458E0,-2.087117946E-1,2.301148331E-1,-2.787285256E0,2.804544980E0
6.180588458E0,-3.080504702E-1,4.286076316E-1,-1.909693615E0,1.981294854E0
6.190613458E0,-4.057302907E-1,6.108583269E-1,-1.182698768E0,1.391596688E0
6.200638458E0,-4.727578374E-1,6.839762968E-1,-6.559254491E-1,1.059038121E0
6.210663458E0,-3.865453569E-1,4.895493597E-1,-2.390347606E-1,6.679921446E-1
6.220688458E0,-2.311634216E-1,1.328165799E-1,2.012792891E-1,3.340510794E-1
6.230713458E0,-2.700905655E-2,-2.131210703E-1,6.408981049E-1,6.759441254E-1
6.240738458E0,2.301201322E-1,-5.011505279E-1,1.017186313E0,1.157054502E0
6.250764458E0,4.341696128E-1,-6.623404294E-1,1.382546074E0,1.593308427E0
6.260788458E0,6.148270514E-1,-6.757422477E-1,1.606483324E0,1.848087812E0
6.270814458E0,6.826501483E-1,-6.263610497E-1,1.455724563E0,1.725535683E0
6.280839458E0,7.139699549E-1,-5.652974072E-1,1.060928164E0,1.398171242E0
6.290864458E0,6.730004883E-1,-3.647510666E-1,7.468911678E-1,1.069494934E0
6.300889458E0,6.271069352E-1,-1.235809028E-2,3.280299675E-1,7.078273025E-1
6.310914458E0,6.054313798E-1,2.476009315E-1,-1.918547469E-1,6.816609281E-1
6.320939458E0,5.394325411E-1,3.867710960E-1,-5.115460002E-1,8.380087455E-1
6.330964458E0,3.457254694E-1,5.158132982E-1,-6.065843046E-1,8.680633487E-1
6.340989458E0,5.777878638E-2,6.416754922E-1,-4.091559917E-1,7.632132408E-1
6.351014458E0,-1.162459362E-1,5.822452694E-1,-1.051042861E-1,6.029673145E-1
6.361039458E0,-1.930318645E-1,3.972291335E-1,6.720321894E-2,4.467309681E-1
6.371064458E0,-1.138140061E-1,2.177137658E-1,1.665678781E-1,2.968126848E-1
6.381089458E0,-6.844823733E-3,1.055659238E-1,9.042485118E-2,1.391677749E-1
6.391114458E0,1.452354813E-1,3.643195421E-2,-1.281785685E-1,1.971049916E-1
6.401139458E0,3.604480640E-1,-8.744715661E-2,-5.257944953E-1,6.434513683E-1
6.411164458E0,4.259867268E-1,-1.220898628E-2,-8.456085402E-1,9.469253160E-1
6.421189458E0,4.731107169E-1,1.656609750E-1,-8.432339859E-1,9.809795431E-1
6.431214458E0,4.660449415E-1,4.074836880E-2,-9.463993353E-1,1.055713038E0
6.441239458E0,4.087817699E-1,-1.676420116E-1,-9.470746887E-1,1.045063082E0
6.451264458E0,3.459862552E-1,-3.136393851E-1,-7.958744627E-1,9.227634112E-1
6.461289458E0,3.973402672E-1,-5.858606029E-1,-6.019410306E-1,9.292173794E-1
6.471314458E0,5.674558338E-1,-9.793407941E-1,-4.294657105E-1,1.210601219E0
6.481339458E0,6.308430867E-1,-1.246326707E0,-4.105552304E-1,1.455970075E0
6.491364458E0,6.088388813E-1,-1.282194698E0,-7.025242496E-1,1.583745039E0
6.501389458E0,6.213450889E-1,-1.238133881E0,-1.226593816E0,1.850291225E0
6.511414458E0,7.166333617E-1,-1.227743379E0,-1.891091284E0,2.365828274E0
6.521439458E0,6.707520877E-1,-1.065797432E0,-2.598504390E0,2.887569496E0
6.531464458E0,6.252443777E-1,-7.340050739E-1,-3.107424406E0,3.253579631E0
6.541489458E0,6.637942665E-1,-6.042921960E-1,-3.188839867E0,3.312777020E0
6.551514458E0,6.684705041E-1,-8.691652179E-1,-3.374550945E0,3.548224213E0
6.561539458E0,6.451302465E-1,-9.966251636E-1,-3.611421651E0,3.801555088E0
6.571564458E0,6.818263487E-1,-1.132818218E0,-3.622868745E0,3.856597234E0
6.581585375E0,6.850031409E-1,-1.492832455E0,-3.777236407E0,4.118894624E0
6.591610375E0,7.669379812E-1,-1.424553056E0,-2.961607711E0,3.374709693E0
6.601635375E0,8.003717025E-1,-1.261561628E0,-2.281459002E0,2.727120786E0
6.611660375E0,4.986949897E-1,-1.918680494E0,-3.655814881E0,4.158727447E0
6.621685375E0,7.060029043E-1,-2.207185622E0,-3.170313549E0,3.926957661E0
6.631710375E0,9.580496932E-1,-2.490706877E0,-2.829475256E0,3.889397149E0
6.641735375E0,1.231095295E0,-2.875044361E0,-2.412906749E0,3.950138565E0
6.651760375E0,1.344174014E0,-2.750452767E0,-2.443999318E0,3.917260123E0
6.661785375E0,1.045550498E0,-2.537995648E0,-2.608000853E0,3.786326215E0
6.671810375E0,6.056992554E-1,-1.956721017E0,-2.833318630E0,3.496186950E0
6.681835375E0,2.071101326E-1,-1.266427388E0,-3.036214090E0,3.296259841E0
6.691860375E0,-6.282372750E-2,-9.061739999E-1,-2.937076887E0,3.074332250E0
6.701885375E0,-9.514830507E-2,-6.621229130E-1,-1.955704186E0,2.066939480E0
6.711910375E0,2.182034701E-3,-2.448199958E-1,-2.737105036E-1,3.672315773E-1
6.721935375E0,5.010786071E-2,-7.591323137E-2,1.019076717E0,1.023128033E0
6.731960375E0,1.358618098E-1,-1.753427947E-1,1.999782836E0,2.012047445E0
6.741985375E0,2.807569832E-1,-7.539823785E-2,3.056322665E0,3.070116872E0
6.752010375E0,4.146012112E-1,-6.294922337E-2,4.102193078E0,4.123571852E0
6.762035375E0,4.157649533E-1,-2.578487617E-1,4.821747928E0,4.846503850E0
6.772060375E0,4.991895179E-1,-1.707180856E-1,5.192126355E0,5.218861076E0
6.782085375E0,3.848154947E-1,2.233612990E-1,5.442161483E0,5.460320031E0
6.792110375E0,8.260507733E-2,7.980139589E-1,5.557004306E0,5.614619020E0
6.802135375E0,-2.725626951E-1,1.297878684E0,5.583462372E0,5.738800534E0
6.812160375E0,-5.982198626E-1,1.475569136E0,5.537951154E0,5.762297655E0
6.822185375E0,-9.380309464E-1,1.603304778E0,5.160471869E0,5.484611032E0
6.832210375E0,-1.226168285E0,1.919814415E0,4.652749947E0,5.180468910E0
6.842235375E0,-1.458111835E0,1.975031134E0,4.000588936E0,4.693777789E0
6.852260375E0,-1.526875383E0,1.937795042E0,3.332151030E0,4.146037692E0
6.862285375E0,-1.614118618E0,2.126742991E0,2.859578476E0,3.912237688E0
6.872310375E0,-1.716535232E0,2.318361657E0,2.288969750E0,3.682482382E0
6.882335375E0,-1.579225359E0,2.237908940E0,1.911388139E0,3.339999068E0
6.892360375E0,-1.384250245E0,2.059367426E0,1.911147233E0,3.132032357E0
6.902385375E0,-1.332367024E0,2.008380582E0,1.768724847E0,2.989512006E0
6.912410375E0,-1.318783650E0,2.000186879E0,1.381720448E0,2.765698693E0
6.922435375E0,-1.333134763E0,2.056267232E0,7.936414111E-1,2.575917296E0
6.932460375E0,-1.297310627E0,2.121479182E0,1.586899245E-1,2.491760677E0
6.942485375E0,-1.181724184E0,2.075210018E0,-4.619885087E-1,2.432365525E0
6.952510375E0,-1.075900325E0,1.901398755E0,-9.886419600E-1,2.397976576E0
6.962535375E0,-1.021104093E0,1.735378761E0,-1.522311485E0,2.524207851E0
6.972560375E0,-1.019381869E0,1.595356950E0,-2.112863894E0,2.836987315E0
6.982585375E0,-1.048722028E0,1.451279802E0,-2.612361122E0,3.167090397E0
6.992610375E0,-1.181258453E0,1.356239890E0,-3.047212703E0,3.538398427E0
7.002635375E0,-1.368211918E0,1.324113240E0,-3.381158298E0,3.880400902E0
7.012660375E0,-1.544467755E0,1.494997533E0,-3.800016575E0,4.365836030E0
7.022685375E0,-1.658674109E0,1.610981880E0,-4.232019392E0,4.822494225E0
7.032710375E0,-1.550783479E0,1.475756978E0,-4.524897069E0,5.005744853E0
7.042735375E0,-1.336676714E0,1.182798317E0,-4.568155940E0,4.904463802E0
7.052760375E0,-1.039473121E0,7.199586732E-1,-4.429935363E0,4.606861424E0
7.062785375E0,-7.692384951E-1,4.183140470E-1,-4.287553908E0,4.376052218E0
7.072810375E0,-5.975090604E-1,2.720102064E-1,-4.392594459E0,4.441384099E0
7.082836375E0,-4.178827418E-1,6.954963349E-2,-4.567181793E0,4.586786748E0
7.092861375E0,-2.567873459E-1,-1.228833300E-1,-4.686633393E0,4.695271303E0
7.102886375E0,-1.916927791E-1,-1.470355466E-1,-4.710624518E0,4.716815549E0
7.112911375E0,-1.518207617E-1,-7.041158617E-2,-4.286832946E0,4.290098372E0
7.122936375E0,-5.198591329E-2,-5.783539474E-2,-3.144810333E0,3.145771686E0
7.132961375E0,-1.778554894E-2,3.155382684E-1,-1.768428394E0,1.796446411E0
7.142986375E0,1.248724066E-2,9.830164269E-1,-3.286474335E-1,1.036574340E0
7.153011375E0,1.048097326E-1,1.408624949E0,1.411197431E0,1.996669105E0
7.163036375E0,4.932461156E-1,1.334114464E0,3.370500578E0,3.658336682E0
7.173061375E0,9.509687881E-1,9.137321109E-1,5.479489523E0,5.635960737E0
7.183086375E0,1.288819885E0,4.888653816E-1,7.936102454E0,8.054921987E0
7.193111375E0,1.180384294E0,5.565729960E-1,1.036009202E1,1.044196280E1
7.203136375E0,7.084359308E-1,1.496044769E0,1.241181684E1,1.252171029E1
7.213161375E0,2.700711235E-1,2.690402740E0,1.430898572E1,1.456222090E1
7.223186375E0,1.769124066E-1,3.150886760E0,1.594961152E1,1.625882815E1
7.233211375E0,6.540101206E-1,2.489264368E0,1.719036378E1,1.738196690E1
7.243236375E0,1.587806294E0,1.436696261E0,1.768420675E1,1.781337681E1
7.253261375E0,2.694560695E0,1.951505300E-1,1.788966388E1,1.809250714E1
7.263286375E0,3.625545600E0,-1.192950107E0,1.859730561E1,1.898492789E1
7.273311375E0,4.157313903E0,-1.884144499E0,1.988640616E1,2.040349013E1
7.283336375E0,4.477681387E0,-2.066407181E0,2.161683818E1,2.217222050E1
7.293361375E0,4.351952217E0,-2.862188673E0,2.228770794E1,2.288828385E1
7.303386375E0,3.555381059E0,-2.927724266E0,2.055141234E1,2.106116931E1
7.313411375E0,2.579568767E0,-2.386392549E0,1.692303493E1,1.728404338E1
7.323436375E0,1.460662683E0,-1.764336804E0,1.158624846E1,1.181048573E1
7.333461375E0,5.207020821E-1,-9.699431491E-1,6.340417183E0,6.435278582E0
7.343486375E0,2.029569284E-1,-3.901039358E-1,2.473490335E0,2.512275270E0
7.353511375E0,2.635730396E-1,-5.789477322E-1,4.047980618E-1,7.539978081E-1
7.363536375E0,3.892796246E-1,-7.717666849E-1,-7.278000087E-1,1.129980219E0
7.373561375E0,2.963625439E-1,-4.677116903E-1,-1.832930199E0,1.914737083E0
7.383586375E0,-1.878929660E-1,7.673154920E-3,-3.158941299E0,3.164533580E0
7.393611375E0,-1.215945159E0,6.982192370E-1,-4.788831028E0,4.989883300E0
7.403636375E0,-2.144034524E0,1.315780812E0,-5.850674865E0,6.368560243E0
7.413661375E0,-2.358609796E0,1.041356363E0,-5.982513791E0,6.514440460E0
7.423686375E0,-2.219996287E0,5.402396031E-1,-5.823375970E0,6.255553535E0
7.433711375E0,-1.961809556E0,5.163642521E-1,-6.137220007E0,6.463806788E0
7.443736375E0,-1.712337662E0,5.438630495E-1,-7.275334341E0,7.493889314E0
7.453761375E0,-1.481237427E0,4.282019810E-1,-9.008660730E0,9.139660245E0
7.463786375E0,-1.345921454E0,7.209935573E-1,-1.101743717E1,1.112273609E1
7.473811375E0,-9.765162235E-1,7.425539955E-1,-1.238057867E1,1.244120969E1
7.483836375E0,-4.720099054E-1,1.303192341E-1,-1.273897089E1,1.274837856E1
7.493861375E0,-2.613723669E-1,-1.980573271E-1,-1.231427593E1,1.231864172E1
7.503886375E0,-3.447854564E-1,-2.953235668E-1,-1.124944182E1,1.125859824E1
7.513911375E0,-5.265699823E-1,-6.065221779E-1,-1.001142372E1,1.004359248E1
7.523936375E0,-7.870300374E-1,-1.019006989E0,-8.852087497E0,8.945235859E0
7.533961375E0,-1.214054389E0,-1.229353994E0,-7.934063530E0,8.120012525E0
7.543986375E0,-1.691453893E0,-1.150574312E0,-7.231969051E0,7.515731093E0
7.554011375E0,-2.094296938E0,-9.015153770E-1,-6.757038900E0,7.131366232E0
7.564036375E0,-2.248126803E0,-6.194285908E-1,-6.599542392E0,6.999408952E0
7.574061375E0,-2.036695139E0,-7.654468681E-1,-6.636943522E0,6.984486761E0
7.584086500E0,-1.731132806E0,-1.081572782E0,-7.089507489E0,7.377515632E0
7.594111500E0,-1.511916305E0,-1.165241321E0,-7.840602220E0,8.069617179E0
7.604136500E0,-1.299134958E0,-1.094403765E0,-8.590659070E0,8.756991178E0
7.614161500E0,-1.034257917E0,-1.191734178E0,-9.077654366E0,9.213779278E0
7.624186500E0,-8.120764395E-1,-1.339811260E0,-9.416252591E0,9.545699305E0
7.634211500E0,-6.339904967E-1,-1.451512375E0,-9.510800314E0,9.641792092E0
7.644236500E0,-4.496630897E-1,-1.667878650E0,-9.465056376E0,9.621398458E0
7.654261500E0,-3.567348994E-1,-1.832980777E0,-9.225910519E0,9.412996506E0
7.664286500E0,-3.813283615E-1,-1.823248672E0,-8.964056414E0,9.155542280E0
7.674311500E0,-3.746937452E-1,-1.738885629E0,-8.847445977E0,9.024489955E0
7.684336500E0,-2.948798728E-1,-1.796726140E0,-8.764241268E0,8.951374418E0
7.694361500E0,-1.791541195E-1,-1.952452988E0,-8.796827801E0,9.012677084E0
7.704386500E0,-9.418855771E-2,-2.202177043E0,-8.990658907E0,9.256911083E0
7.714411500E0,-2.571688767E-1,-2.038698980E0,-9.497419546E0,9.717170750E0
7.724436500E0,-5.106076683E-1,-1.685357586E0,-1.003242574E1,1.018580958E1
7.734461500E0,-8.085219902E-1,-1.404125808E0,-1.073814491E1,1.085969766E1
7.744486500E0,-1.163413628E0,-9.315485770E-1,-1.143935939E1,1.153604166E1
7.754511500E0,-1.460546762E0,-5.546696542E-1,-1.155097689E1,1.165615384E1
7.764536500E0,-1.623948811E0,-5.769817521E-1,-1.148727615E1,1.161583536E1
7.774561500E0,-1.328940994E0,-1.023101210E0,-1.088853764E1,1.101694477E1
7.784586500E0,-1.199770372E0,-1.712820057E0,-1.021932848E1,1.043110139E1
7.794611500E0,-1.186055509E0,-1.789441532E0,-9.307923566E0,9.552291336E0
7.804636500E0,-1.376871790E0,-1.031648377E0,-8.072139096E0,8.253454058E0
7.814661500E0,-1.506826012E0,2.494816884E-2,-6.378937470E0,6.554539670E0
7.824686500E0,-7.821150872E-1,2.103920285E-1,-3.770826690E0,3.856825474E0
7.834711500E0,2.984879337E-1,-4.583459857E-1,-4.819982654E-1,7.290393796E-1
7.844736500E0,1.192841202E0,-4.717957512E-1,2.906163828E0,3.176672718E0
7.854761500E0,2.005161398E0,-9.359126464E-2,5.689989871E0,6.033690105E0
7.864786500E0,2.742505524E0,-2.305443111E-1,7.558690996E0,8.044146742E0
7.874811500E0,3.119563226E0,-6.657879478E-1,8.857659894E0,9.414514703E0
7.884836500E0,2.881908408E0,-1.053808886E0,1.120604963E1,1.161858243E1
7.894861500E0,2.171756465E0,-6.576867767E-1,1.510903685E1,1.527848397E1
7.904886500E0,1.667787433E0,-2.302788475E-1,1.911478069E1,1.918878276E1
7.914911500E0,1.564972917E0,-3.572540590E-1,2.161495304E1,2.167447728E1
7.924936500E0,1.278821146E0,-5.731142575E-1,2.179968061E1,2.184467712E1
7.934961500E0,7.460513614E-1,-4.504553144E-1,2.038177526E1,2.040039865E1
7.944986500E0,2.063941045E-1,-8.578340448E-2,1.879805690E1,1.879938564E1
7.955011500E0,-3.076197131E-1,4.493532604E-1,1.751197585E1,1.752044081E1
7.965036500E0,-6.105062514E-1,1.059351169E0,1.672614748E1,1.677077674E1
7.975061500E0,-4.301833832E-1,1.389590215E0,1.594692414E1,1.601313237E1
7.985086500E0,2.138418492E-1,1.193093217E0,1.470804415E1,1.475790509E1
7.995111500E0,9.439975914E-1,1.111338983E0,1.316257594E1,1.324309673E1
8.005136500E0,1.466881781E0,1.166342425E0,1.165813881E1,1.180780662E1
8.015161500E0,1.678862498E0,1.055098197E0,1.049105327E1,1.067679775E1
8.025186500E0,1.640221174E0,9.366291495E-1,9.370155482E0,9.558630311E0
8.035211500E0,1.397473285E0,9.519891272E-1,8.014040576E0,8.190486020E0
8.045236500E0,9.833000900E-1,1.186803075E0,6.413161224E0,6.595757537E0
8.055261500E0,5.486395669E-1,1.662210213E0,4.704152820E0,5.019263085E0
8.065286500E0,3.950968002E-1,1.889451870E0,3.064196525E0,3.621523187E0
8.075311500E0,6.548556279E-1,1.427706460E0,1.790168341E0,2.381571817E0
8.085336500E0,8.994410773E-1,9.280213172E-1,8.112520552E-1,1.525892432E0
8.095361500E0,1.018967959E0,6.926088336E-1,-6.684653878E-2,1.233884581E0
8.105386500E0,9.181071438E-1,4.707462490E-1,-9.383699387E-1,1.394654402E0
8.115411500E0,5.927384634E-1,3.621954679E-1,-1.661324944E0,1.800701256E0
8.125436500E0,2.401717151E-1,3.664551645E-1,-2.034300120E0,2.080949019E0
8.135461500E0,-2.646541167E-2,3.426675218E-1,-2.238556226E0,2.264785956E0
8.145487500E0,-2.693451551E-1,4.364907016E-1,-2.620193467E0,2.669922237E0
8.155511500E0,-4.460381084E-1,4.816845623E-1,-3.240840910E0,3.306662943E0
8.165537500E0,-5.601815686E-1,5.034272144E-1,-4.095978658E0,4.164646865E0
8.175562500E0,-5.799344498E-1,5.898862647E-1,-4.885236411E0,4.954777953E0
8.185587500E0,-5.420850940E-1,4.995855937E-1,-5.415137991E0,5.465085678E0
8.195612500E0,-4.476131290E-1,3.254050793E-1,-5.684880574E0,5.711752193E0
8.205637500E0,-3.323650932E-1,3.242588789E-1,-5.674489487E0,5.693456008E0
8.215662500E0,-2.010216462E-1,1.691581947E-1,-5.631962687E0,5.638087256E0
8.225687500E0,-7.119145855E-2,6.840072870E-2,-5.683126409E0,5.683983873E0
8.235712500E0,-8.862982906E-2,2.490340841E-1,-5.398130195E0,5.404598303E0
8.245737500E0,-1.948688770E-1,7.657778205E-1,-4.557192995E0,4.625191622E0
8.255762500E0,-4.831590839E-1,7.263746767E-1,-3.436410978E0,3.545417222E0
8.265787500E0,-5.201267161E-1,-3.777586363E-2,-2.610701682E0,2.662277613E0
8.275812500E0,-4.211835315E-1,-3.210741198E-1,-1.981602089E0,2.051153577E0
8.285837500E0,-5.080896745E-1,-3.996699806E-1,-1.476394470E0,1.611717048E0
8.295862500E0,-4.837245827E-1,-5.626278609E-1,-1.161821870E0,1.378538951E0
8.305887500E0,-4.641261777E-1,-9.007269531E-1,-1.185942219E0,1.559865731E0
8.315912500E0,-6.573600635E-1,-9.939139558E-1,-1.606876257E0,2.000509563E0
8.325937500E0,-9.800987394E-1,-6.205594423E-1,-1.977285089E0,2.292453682E0
8.335962500E0,-1.215937266E0,-2.175228542E-1,-2.121615422E0,2.455009496E0
8.345987500E0,-1.180305649E0,1.047746493E-1,-2.004821382E0,2.328821145E0
8.356012500E0,-1.009968144E0,2.391710007E-1,-1.319609569E0,1.678871000E0
8.366037500E0,-6.482536829E-1,3.771483332E-2,-4.489129651E-1,7.894163010E-1
8.376062500E0,-2.940606413E-1,-2.008503959E-1,1.458845222E-1,3.848309188E-1
8.386087500E0,-1.529011810E-1,-3.551727426E-1,4.336330211E-1,5.810026207E-1
8.396112500E0,-6.857475646E-2,-2.693677765E-1,4.654143924E-1,5.420996706E-1
8.406137500E0,-3.432425223E-2,-6.867978707E-2,3.297443712E-1,3.385652341E-1
8.416162500E0,7.307638161E-2,1.966418624E-3,8.968927145E-2,1.157073453E-1
8.426187500E0,2.594027323E-1,-7.908388406E-2,-4.131584108E-2,2.743192246E-1
8.436212500E0,3.954642977E-1,-2.453232948E-1,-1.526187605E-1,4.897632242E-1
8.446237500E0,4.354660501E-1,-4.011564159E-1,-4.445357394E-1,7.403844775E-1
8.456262500E0,3.562254607E-1,-4.941031712E-1,-7.894138741E-1,9.971001892E-1
8.466287500E0,2.195437981E-1,-4.027088517E-1,-1.168654926E0,1.255439459E0
8.476312500E0,8.162756905E-2,-2.096326214E-1,-1.533514751E0,1.549927865E0
8.486337500E0,-8.009420983E-2,6.189730927E-2,-1.577903888E0,1.581147381E0
8.496362500E0,-1.124526282E-1,3.055387987E-1,-1.324843996E0,1.364262132E0
8.506387500E0,-7.513708659E-2,3.414240383E-1,-8.314354742E-1,9.019428493E-1
8.516412500E0,-7.121777102E-2,2.757650690E-1,-3.207852674E-1,4.289773093E-1
8.526437500E0,1.260023810E-2,1.272392133E-1,1.060287309E-1,1.661044104E-1
8.536462500E0,9.869953841E-2,-6.053490803E-2,3.777365631E-1,3.950835166E-1
8.546487500E0,3.354781508E-2,-1.116303635E-1,3.622338402E-1,3.805261475E-1
8.556512500E0,-7.886848725E-2,7.342772618E-2,1.940860444E-1,2.219938330E-1
8.566537500E0,-1.230848397E-1,2.637716988E-1,2.204020232E-1,3.651060649E-1
8.576562500E0,-1.143201558E-1,3.664774570E-1,7.253938794E-2,3.906875827E-1
8.586588083E0,-1.544752514E-1,3.893055716E-1,-1.158929837E-1,4.345717605E-1
8.596613084E0,-1.797176083E-1,4.634791102E-1,-2.591480130E-1,5.605970005E-1
8.606638083E0,-2.160960605E-1,6.019995028E-1,-3.772804803E-1,7.425910513E-1
8.616663083E0,-2.696540708E-1,8.454268380E-1,-3.023425645E-1,9.374811372E-1
8.626688083E0,-3.072275477E-1,8.832428281E-1,-1.668070292E-1,9.499111771E-1
8.636713083E0,-2.366341131E-1,7.901724042E-1,-1.810023147E-1,8.444702302E-1
8.646738083E0,-1.220744408E-1,6.941516215E-1,-1.785727966E-1,7.270741959E-1
8.656763083E0,-7.804205641E-3,7.068061656E-1,-1.285147834E-1,7.184371308E-1
8.666788084E0,1.333311349E-2,7.133062229E-1,-1.465838492E-1,7.283339648E-1
8.676813083E0,1.086678717E-1,5.698614514E-1,-1.546845818E-1,6.003982844E-1
8.686838083E0,2.039295396E-1,4.326264229E-1,-1.750901949E-1,5.093225455E-1
8.696863083E0,1.344134545E-1,3.171806051E-1,-2.845717067E-1,4.468238682E-1
8.706888083E0,1.317713901E-2,3.418921079E-1,-5.115196878E-1,6.153992537E-1
8.716913083E0,-1.697526372E-1,4.546297878E-1,-6.373663867E-1,8.010868321E-1
8.726938083E0,-2.762984812E-1,4.896728821E-1,-6.935978901E-1,8.928596841E-1
8.736963084E0,-3.225302958E-1,4.364741832E-1,-6.906251657E-1,8.783499438E-1
8.746988083E0,-3.292656304E-1,3.886141384E-1,-5.623770154E-1,7.587520750E-1
8.757013083E0,-2.433568031E-1,3.209833418E-1,-3.134019881E-1,5.103661877E-1
8.767038083E0,-1.474862207E-1,2.985000667E-1,-7.986127138E-3,3.330439211E-1
8.777063083E0,-1.290593053E-1,2.310650057E-1,1.974534559E-1,3.302047977E-1
8.787088083E0,-1.243328547E-1,1.913858002E-1,1.224354333E-1,2.589934722E-1
8.797113083E0,-1.716540056E-1,3.272663212E-1,-5.858793139E-2,3.741669257E-1
8.807138084E0,-1.818882409E-1,5.104758136E-1,-3.772997761E-1,6.603211412E-1
8.817163083E0,-9.565255433E-2,4.988307913E-1,-6.672620308E-1,8.385822484E-1
8.827188083E0,-7.154565364E-2,4.229375866E-1,-8.328148323E-1,9.367900126E-1
8.837213083E0,-1.735300116E-2,3.947407047E-1,-9.473840064E-1,1.026478352E0
8.847238083E0,-5.224706456E-3,3.273142684E-1,-1.065148099E0,1.114317011E0
8.857263083E0,-4.249909826E-2,2.706206886E-1,-1.200990613E0,1.231836102E0
8.867288083E0,-1.378383880E-1,2.438017032E-1,-1.320522904E0,1.349896082E0
8.877313083E0,-2.033082730E-1,2.270751581E-1,-1.351185118E0,1.385134869E0
8.887338083E0,-2.194811598E-1,2.148598860E-1,-1.409143304E0,1.442227999E0
8.897363083E0,-2.307791499E-1,1.792446417E-1,-1.437116969E0,1.466524067E0
8.907388083E0,-2.688723712E-1,1.119927447E-1,-1.453610210E0,1.482503750E0
8.917413083E0,-3.084596291E-1,7.163818583E-2,-1.595533243E0,1.626654758E0
8.927438083E0,-2.750338747E-1,1.072180545E-1,-1.885353996E0,1.908323618E0
8.937463083E0,-2.635332786E-1,1.303932014E-1,-2.193068397E0,2.212690934E0
8.947488083E0,-2.266154938E-1,1.140894831E-1,-2.494246781E0,2.507117468E0
8.957513083E0,-1.824747898E-1,1.448709074E-1,-2.874559042E0,2.883985839E0
8.967538083E0,-2.349617364E-1,2.240767790E-1,-3.121352473E0,3.138193538E0
8.977563083E0,-2.923471878E-1,3.128169011E-1,-3.207670825E0,3.236120117E0
8.987588083E0,-3.016905999E-1,3.231427185E-1,-3.169349928E0,3.200033969E0
8.997613083E0,-2.545086128E-1,2.312579638E-1,-2.963290540E0,2.983177116E0
9.007638083E0,-3.236417784E-1,2.412083168E-1,-2.713662964E0,2.743518203E0
9.017663083E0,-3.329948384E-1,2.598815462E-1,-2.491160620E0,2.526718270E0
9.027688083E0,-2.677347954E-1,3.978745200E-2,-2.298589590E0,2.314471660E0
9.037713083E0,-2.621553091E-1,-2.623623736E-1,-2.153569286E0,2.185273459E0
9.047738083E0,-3.240773229E-1,-3.794979637E-1,-2.175344902E0,2.231853547E0
9.057763083E0,-3.805348578E-1,-3.466828778E-1,-2.243569044E0,2.301868340E0
9.067788083E0,-3.855807125E-1,-9.487122014E-2,-2.313741480E0,2.347567394E0
9.077813083E0,-4.420681779E-1,3.489746940E-1,-2.242487310E0,2.312132553E0
9.087838083E0,-4.623918569E-1,7.062230520E-1,-1.951125231E0,2.125899080E0
9.097863083E0,-3.371916408E-1,9.402910414E-1,-1.312305812E0,1.649239821E0
9.107888083E0,-4.863571454E-2,9.739898609E-1,-3.135768199E-1,1.024378887E0
9.117913083E0,2.887697151E-1,9.378004199E-1,9.582563192E-1,1.371536638E0
9.127938083E0,6.790152267E-1,8.751691389E-1,2.954413882E0,3.155240733E0
9.137963083E0,1.152026906E0,9.505944201E-1,5.247507674E0,5.455926368E0
9.147988083E0,1.341247775E0,1.378212995E0,7.446053742E0,7.690392252E0
9.158013083E0,9.764603095E-1,1.969509024E0,1.022267309E1,1.045636101E1
9.168038083E0,6.079993673E-1,2.298246504E0,1.262285688E1,1.284476999E1
9.178063083E0,5.000600222E-1,2.544350987E0,1.413339851E1,1.436929836E1
9.188088083E0,7.832873078E-1,2.695052446E0,1.544725617E1,1.570014554E1
9.198113083E0,1.611991840E0,2.236031837E0,1.682477481E1,1.704908805E1
9.208138083E0,2.462099959E0,1.700589729E0,1.797262651E1,1.822002320E1
9.218163083E0,3.154819889E0,1.153180123E0,1.901183110E1,1.930627967E1
9.228188083E0,3.989093017E0,4.102859661E-1,1.992008379E1,2.031971790E1
9.238213083E0,4.706042055E0,-8.034732118E-2,1.981339783E1,2.036477402E1
9.248238083E0,5.127225185E0,-6.113307819E-2,1.854012452E1,1.923612208E1
9.258263083E0,4.974574265E0,1.737201923E-1,1.623835872E1,1.698413559E1
9.268288083E0,4.095018837E0,2.907431504E-1,1.304232210E1,1.367318093E1
9.278313083E0,2.974787335E0,1.400316055E-1,9.367507862E0,9.829505181E0
9.288338083E0,1.498570328E0,2.029029147E-1,6.459525551E0,6.634180655E0
9.298363083E0,1.517222361E-1,7.388160168E-1,4.375370901E0,4.439903069E0
9.308388083E0,-8.852498849E-1,8.080694157E-1,2.679490081E0,2.935355282E0
9.318413083E0,-1.681444483E0,-1.734461041E-1,2.113284309E0,2.706161427E0
9.328438083E0,-2.456843312E0,-1.082658317E0,2.167193883E0,3.450356129E0
9.338463083E0,-2.939652294E0,-1.401951083E0,1.410548975E0,3.549178899E0
9.348488083E0,-3.013418720E0,-1.439381011E0,-1.529310018E-1,3.343037237E0
9.358513083E0,-2.840659517E0,-1.462336594E0,-2.400773191E0,3.996434251E0
9.368538083E0,-2.805107569E0,-1.302903781E0,-4.918428715E0,5.810088447E0
9.378563083E0,-3.027681248E0,-5.571985750E-1,-7.392530669E0,8.007923182E0
9.388588083E0,-3.036385998E0,2.851295310E-1,-9.513882966E0,9.990741107E0
9.398613083E0,-2.784771538E0,7.975346334E-1,-1.085126047E1,1.123124516E1
9.408638083E0,-2.342013060E0,9.918294235E-1,-1.165876797E1,1.193296364E1
9.418663083E0,-1.849418178E0,8.738071762E-1,-1.188918802E1,1.206385836E1
9.428688083E0,-1.324643290E0,7.628987977E-1,-1.155700303E1,1.165765900E1
9.438713083E0,-6.661924289E-1,5.493390401E-1,-1.085184987E1,1.088614860E1
9.448738083E0,-1.776267902E-1,2.921647547E-1,-1.013593082E1,1.014169636E1
9.458763083E0,-5.257670134E-3,1.327572307E-1,-9.419905347E0,9.420842259E0
9.468788083E0,3.839464523E-2,-2.581677273E-2,-8.922849331E0,8.922969284E0
9.478813083E0,-4.302052371E-2,-2.859061874E-1,-8.734811647E0,8.739595392E0
9.488838083E0,-2.092831041E-1,-5.651904032E-1,-8.680433126E0,8.701330868E0
9.498863083E0,-3.472152668E-1,-7.728232768E-1,-8.695865098E0,8.737040921E0
9.508888083E0,-3.192684265E-1,-1.012318506E0,-8.651857198E0,8.716728404E0
9.518913083E0,-9.590288825E-2,-1.351999197E0,-8.272992707E0,8.383287394E0
9.528938083E0,4.006395221E-2,-1.619534163E0,-7.889185565E0,8.053803133E0
9.538963083E0,3.604399145E-2,-1.604632096E0,-7.682067831E0,7.847949381E0
9.548988083E0,1.545117965E-1,-1.514164121E0,-7.504517128E0,7.657306589E0
9.559013083E0,1.182435644E-1,-1.371566173E0,-7.760523432E0,7.881681245E0
9.569038083E0,-1.267009771E-1,-1.099575335E0,-8.278683802E0,8.352348446E0
9.579063083E0,-3.721143191E-1,-9.468434313E-1,-8.538484365E0,8.598877648E0
9.589087209E0,-6.170689470E-1,-8.230302478E-1,-8.852861668E0,8.912424619E0
9.599112208E0,-7.173294727E-1,-7.447895323E-1,-9.198699331E0,9.256637749E0
9.609137208E0,-6.791083436E-1,-8.006881830E-1,-9.383731547E0,9.442282958E0
9.619162208E0,-4.998582201E-1,-9.783555382E-1,-9.402102329E0,9.466074477E0
9.629187208E0,-3.536997924E-1,-1.131747885E0,-9.550680664E0,9.624004258E0
9.639212208E0,-2.991085426E-1,-1.110988808E0,-9.653953602E0,9.722272481E0
9.649237208E0,-2.181914833E-1,-1.056060064E0,-9.576309010E0,9.636833745E0
9.659262209E0,-5.732686970E-2,-1.024637127E0,-9.559778346E0,9.614703825E0
9.669287208E0,-4.371086061E-2,-9.507347533E-1,-9.715390881E0,9.761896700E0
9.679312208E0,-6.289020304E-2,-8.579197066E-1,-9.816605015E0,9.854223227E0
9.689337208E0,-1.066719977E-1,-5.059440753E-1,-9.832226436E0,9.845813070E0
9.699362208E0,-2.859731015E-1,-9.211352706E-2,-1.002424198E1,1.002874333E1
9.709387208E0,-4.080581404E-1,5.730856061E-2,-1.012675771E1,1.013513776E1
9.719412208E0,-3.656986079E-1,-1.024518429E-1,-9.905814815E0,9.913092302E0
9.729437209E0,-2.764937782E-1,-5.189890672E-1,-9.533852962E0,9.551971040E0
9.739462208E0,-4.749090280E-2,-1.194139138E0,-8.837360115E0,8.917800035E0
9.749487208E0,3.496614495E-1,-1.714963354E0,-7.950370830E0,8.140746819E0
9.759512208E0,4.033449922E-1,-1.451682237E0,-7.029998621E0,7.189641793E0
9.769537208E0,1.715076059E-1,-9.716134062E-1,-5.306339434E0,5.397285026E0
9.779562208E0,-6.779429935E-2,-3.619753933E-1,-3.355330562E0,3.375480030E0
9.789587208E0,-4.876204363E-1,9.041936941E-1,-1.917692022E0,2.175518930E0
9.799612209E0,-9.160752364E-1,2.460906542E0,-1.486128330E-2,2.625923781E0
9.809637208E0,-8.515635639E-1,3.440007600E0,2.838216843E0,4.540295986E0
9.819662208E0,-3.619316123E-1,3.381748282E0,6.062448737E0,6.951294888E0
9.829687208E0,5.714808378E-1,2.768250522E0,9.121042460E0,9.548990358E0
9.839712208E0,1.747874115E0,1.768696342E0,1.164644905E1,1.190895152E1
9.849737208E0,2.565750335E0,1.302696497E0,1.238053891E1,1.271054038E1
9.859762208E0,2.679375768E0,1.521889170E0,1.185747624E1,1.225132417E1
9.869787208E0,2.484960818E0,1.225836017E0,1.197788561E1,1.229420383E1
9.879812208E0,2.213431326E0,-2.825607030E-1,1.413421361E1,1.430926669E1
9.889837208E0,1.545852083E0,-1.716867938E0,1.669442634E1,1.685352085E1
9.899862208E0,5.064764643E-1,-1.950935197E0,1.905857842E1,1.916486572E1
9.909887208E0,-3.340658655E-1,-8.746420124E-1,2.126679578E1,2.128739537E1
9.919912208E0,-4.241643324E-1,8.493909578E-1,2.185991629E1,2.188052377E1
9.929937208E0,2.975735754E-1,1.699453176E0,2.080048735E1,2.087191810E1
9.939962208E0,1.370111970E0,1.561126619E0,1.906628271E1,1.917908912E1
9.949987208E0,2.207655446E0,1.323805384E0,1.689265514E1,1.708765639E1
9.960012208E0,2.471554322E0,1.693582718E0,1.382349608E1,1.414446348E1
9.970038208E0,2.214536449E0,2.227782732E0,1.066696091E1,1.111985803E1
9.980063208E0,1.617001588E0,2.540811667E0,8.102213665E0,8.643858186E0
9.990088208E0,9.460137114E-1,2.581244579E0,6.478678690E0,7.037829430E0
1.000011321E1,2.669427169E-1,2.360291456E0,5.914249887E0,6.373428112E0
1.001013821E1,-3.966971831E-1,1.760715478E0,5.763781732E0,6.039757239E0
1.002016321E1,-9.197053340E-1,1.038177963E0,5.630172855E0,5.798492714E0
1.003018821E1,-1.193863003E0,3.894061437E-1,5.074075164E0,5.227158386E0
1.004021321E1,-1.132576655E0,-1.445618820E-1,4.118155977E0,4.273504027E0
1.005023821E1,-9.875245571E-1,-3.730972360E-1,2.791125122E0,2.984088763E0
1.006026321E1,-7.499409293E-1,-4.095913169E-1,1.562023435E0,1.780475683E0
1.007028821E1,-4.801957881E-1,-3.321380751E-1,4.312380016E-1,7.258580507E-1
1.008031321E1,-2.624207727E-1,-1.399259171E-1,-4.374477446E-1,5.289654558E-1
1.009033821E1,-3.406215079E-2,-2.298291966E-2,-1.004630587E0,1.005470566E0
1.010036321E1,1.487784189E-1,-6.936625019E-2,-1.931677977E0,1.938640374E0
1.011038821E1,2.524921640E-1,-1.234803307E-1,-2.528338387E0,2.543913262E0
1.012041321E1,2.123028255E-1,-1.078934079E-1,-2.857109782E0,2.867017576E0
1.013043821E1,1.644228271E-1,-1.929981700E-1,-3.206200250E0,3.216209447E0
1.014046321E1,1.968745816E-1,-2.349267992E-1,-3.608828995E0,3.621822320E0
1.015048821E1,2.229204190E-1,-1.344668104E-1,-3.984345371E0,3.992841453E0
1.016051321E1,2.236934209E-1,-4.575840935E-2,-4.358887600E0,4.364863536E0
1.017053821E1,1.610355899E-1,1.051960874E-1,-4.739426149E0,4.743327829E0
1.018056321E1,6.562129129E-2,2.217109224E-1,-5.052284930E0,5.057573025E0
1.019058821E1,-4.930664599E-4,1.531230828E-1,-5.288684936E0,5.290901177E0
1.020061321E1,-9.849930782E-2,-9.522921592E-2,-5.348176847E0,5.349931429E0
1.021063821E1,-1.887540050E-1,-3.209875810E-1,-5.145023525E0,5.158481188E0
1.022066321E1,-2.203874052E-1,-4.392486870E-1,-4.842999634E0,4.867869705E0
1.023068821E1,-2.943926535E-1,-5.306326278E-1,-4.732311841E0,4.771059985E0
1.024071321E1,-3.021469020E-1,-5.310075805E-1,-4.981778619E0,5.019101514E0
1.025073821E1,-1.697402484E-1,-6.197270912E-1,-5.259152988E0,5.298260429E0
1.026076321E1,1.436215036E-2,-6.547751556E-1,-5.347813734E0,5.387768417E0
1.027078821E1,1.339200592E-1,-5.064652084E-1,-5.606408601E0,5.630831110E0
1.028081321E1,9.558143757E-2,-3.542328027E-1,-5.716447937E0,5.728210340E0
1.029083821E1,7.970339656E-2,-2.634626734E-1,-5.589347595E0,5.596121134E0
1.030086321E1,2.335662983E-2,-3.199885842E-1,-5.351599807E0,5.361208699E0
1.031088821E1,-8.433994621E-2,-4.779768428E-1,-5.041037226E0,5.064349060E0
1.032091321E1,-1.918348664E-1,-6.766288318E-1,-4.546972062E0,4.601041417E0
1.033093821E1,-2.579599319E-1,-8.514469850E-1,-3.843506995E0,3.945130076E0
1.034096321E1,-1.680953170E-1,-9.591531359E-1,-3.088344941E0,3.238225633E0
1.035098821E1,-6.178306930E-2,-1.065955600E0,-2.238534592E0,2.480144271E0
1.036101321E1,-1.126816928E-1,-1.117902410E0,-1.353171417E0,1.758827975E0
1.037103821E1,-6.220969677E-2,-1.055929087E0,-6.636075211E-1,1.248691805E0
1.038106321E1,-5.849824972E-2,-8.601926655E-1,-1.509704304E-1,8.752973996E-1
1.039108821E1,-1.058903711E-1,-5.349342781E-1,2.834642440E-1,6.145888302E-1
1.040111321E1,3.334534611E-2,-3.871043873E-1,6.484246409E-1,7.559207853E-1
1.041113821E1,2.813023091E-1,-5.618074965E-1,1.050581515E0,1.224124247E0
1.042116321E1,3.489184146E-1,-5.822248042E-1,1.294257796E0,1.461448947E0
1.043118821E1,2.954671890E-1,-4.193406719E-1,1.297922831E0,1.395618549E0
1.044121321E1,3.021382774E-1,-2.829055426E-1,1.039413918E0,1.118795950E0
1.045123821E1,3.613642862E-1,-2.338889185E-1,9.915907109E-1,1.080990431E0
1.046126321E1,3.095898959E-1,-3.908600539E-2,1.151902653E0,1.193420857E0
1.047128821E1,1.634201027E-1,3.267188756E-1,1.276830170E0,1.328061232E0
1.048131321E1,1.088117497E-1,4.606736161E-1,1.331763006E0,1.413383488E0
1.049133821E1,1.559590920E-1,3.127606948E-1,1.368329739E0,1.412256622E0
1.050136321E1,1.823225794E-1,1.729436821E-1,1.572722670E0,1.592673111E0
1.051138821E1,2.360651059E-1,1.372823909E-1,1.820936390E0,1.841299141E0
1.052141321E1,3.547118358E-1,-2.955036610E-3,1.853241672E0,1.886884711E0
1.053143821E1,4.755056999E-1,-3.356848499E-1,1.830769653E0,1.921069366E0
1.054146321E1,5.233609938E-1,-6.119238357E-1,1.864257826E0,2.030717793E0
1.055148821E1,5.153509296E-1,-6.268935849E-1,1.698953531E0,1.882823744E0
1.056151321E1,4.044131689E-1,-5.192605242E-1,1.441152132E0,1.584329818E0
1.057153821E1,2.202226599E-1,-3.779767375E-1,9.423425370E-1,1.038929204E0
1.058156321E1,2.535179118E-2,-1.999563566E-1,2.515214896E-1,3.223171072E-1
1.059158846E1,-1.424437099E-1,8.862186223E-2,-4.882378292E-1,5.162559664E-1
1.060161346E1,-2.531926239E-1,3.090244702E-1,-1.175347064E0,1.241387671E0
1.061163846E1,-2.993572685E-1,3.758137062E-1,-1.571666663E0,1.643467924E0
1.062166346E1,-2.762987005E-1,4.193855493E-1,-1.910210509E0,1.975127692E0
1.063168846E1,-1.712536906E-1,3.782645667E-1,-2.027277614E0,2.069363775E0
1.064171346E1,-1.009190684E-1,2.542287505E-1,-1.906749542E0,1.926268604E0
1.065173846E1,-1.378575376E-1,2.157887162E-1,-1.675955263E0,1.695404233E0
1.066176346E1,-2.228999537E-1,2.943099520E-1,-1.297249231E0,1.348761767E0
1.067178846E1,-2.898140278E-1,3.106963353E-1,-8.560949367E-1,9.557316172E-1
1.068181346E1,-2.930948640E-1,2.863742571E-1,-4.088414115E-1,5.788489562E-1
1.069183846E1,-2.415256745E-1,1.977694979E-1,-7.483851314E-3,3.122553983E-1
1.070186346E1,-1.308289652E-1,4.533346295E-2,4.444193798E-1,4.654889109E-1
1.071188846E1,7.606471080E-2,-4.504724175E-2,8.114286411E-1,8.162300741E-1
1.072191346E1,3.362658439E-1,-2.068766825E-1,8.690734166E-1,9.545476850E-1
1.073193846E1,5.263526852E-1,-3.753089453E-1,8.090956020E-1,1.035634900E0
1.074196346E1,5.154893625E-1,-2.958770058E-1,4.962438369E-1,7.742935044E-1
1.075198846E1,3.818056405E-1,-7.101224139E-2,1.473451567E-1,4.153659600E-1
1.076201346E1,1.661089813E-1,1.912479521E-1,-1.585940301E-2,2.538099556E-1
1.077203846E1,-2.706325293E-2,3.614413963E-1,-1.168840867E-1,3.808335494E-1
1.078206346E1,-1.981617730E-1,4.315465884E-1,-9.658313870E-2,4.845914247E-1
1.079208846E1,-2.793704256E-1,4.657877371E-1,4.222859144E-2,5.447837228E-1
1.080211346E1,-3.511851608E-1,4.636410780E-1,1.403261590E-1,5.983188926E-1
1.081213846E1,-3.481557184E-1,3.540834063E-1,1.767513889E-1,5.270944093E-1
1.082216346E1,-2.613189745E-1,1.527509075E-1,2.733655179E-1,4.078592313E-1
1.083218846E1,-1.654503290E-1,2.292386279E-2,2.638158453E-1,3.122468816E-1
1.084221346E1,-7.027041245E-2,-1.391900450E-2,1.990228486E-1,2.115224901E-1
1.085223846E1,-2.912220374E-2,-3.707851008E-2,9.330986738E-2,1.045449665E-1
1.086226346E1,-5.733819868E-2,9.954884648E-4,-6.895796835E-2,8.968757676E-2
1.087228846E1,-1.474217186E-1,1.441519922E-1,-1.989561903E-1,2.865249128E-1
1.088231346E1,-2.575067361E-1,2.957719021E-1,-3.539395648E-1,5.282650402E-1
1.089233846E1,-3.017002478E-1,3.273141222E-1,-4.929752433E-1,6.642154505E-1
1.090236346E1,-3.421092588E-1,2.973173212E-1,-4.700407094E-1,6.529736617E-1
1.091238846E1,-3.695595609E-1,3.123554827E-1,-4.721439528E-1,6.760622226E-1
1.092241346E1,-3.376453848E-1,2.407256292E-1,-3.549335915E-1,5.458306411E-1
1.093243846E1,-2.844424466E-1,1.532926521E-1,-1.986515504E-1,3.793001201E-1
1.094246346E1,-2.348702640E-1,1.286112624E-1,-1.035769933E-1,2.871116356E-1
1.095248846E1,-1.539563110E-1,1.397895308E-1,-1.193247145E-1,2.397541368E-1
1.096251346E1,-6.474219896E-2,1.279500885E-1,-1.776653087E-1,2.283150004E-1
1.097253846E1,-2.287902195E-2,1.617753540E-1,-3.406868505E-1,3.778389140E-1
1.098256346E1,-6.040941216E-3,2.660660000E-1,-5.410200602E-1,6.029347517E-1
1.099258846E1,-1.457915515E-2,3.324026616E-1,-7.306382471E-1,8.028301996E-1
1.100261346E1,-4.078674115E-2,3.698888688E-1,-9.488405478E-1,1.019205435E0
1.101263846E1,-8.078483909E-2,3.581985305E-1,-1.139231737E0,1.196946669E0
1.102266346E1,-1.471619195E-1,3.416934487E-1,-1.218452153E0,1.273984573E0
1.103268846E1,-1.651342505E-1,3.260680805E-1,-1.255418251E0,1.307541471E0
1.104271346E1,-1.113508666E-1,2.361080830E-1,-1.193271119E0,1.221491713E0
1.105273846E1,-3.371840760E-2,1.084923090E-1,-1.110552898E0,1.116349072E0
1.106276346E1,1.641627721E-2,1.813660115E-2,-9.866983455E-1,9.870015479E-1
1.107278846E1,4.021521237E-2,-6.733799726E-3,-9.623581409E-1,9.632215731E-1
1.108281346E1,5.259650879E-2,-4.023556799E-2,-1.071777672E0,1.073821527E0
1.109283846E1,8.977610260E-2,-9.083693370E-2,-1.310305479E0,1.316514924E0
1.110286346E1,9.682488453E-2,-7.060527518E-2,-1.652527809E0,1.656867020E0
1.111288846E1,1.014652714E-2,5.521569595E-2,-2.014855789E0,2.015637759E0
1.112291346E1,-4.704486988E-2,1.200053304E-1,-2.324576955E0,2.328147873E0
1.113293846E1,-6.566898264E-2,5.042054057E-2,-2.604872008E0,2.606187412E0
1.114296346E1,-1.422001916E-1,5.500505000E-2,-2.940103406E0,2.944054091E0
1.115298846E1,-2.050761055E-1,1.223269674E-1,-3.265230231E0,3.273949993E0
1.116301346E1,-2.202314672E-1,1.467456709E-1,-3.547819147E0,3.557675771E0
1.117303846E1,-2.521735273E-1,9.041491091E-2,-3.811570673E0,3.820973350E0
1.118306346E1,-3.151408039E-1,9.112388581E-2,-4.005535680E0,4.018946799E0
1.119308846E1,-4.565064517E-1,1.920573530E-1,-4.117811576E0,4.147487956E0
1.120311346E1,-5.824047888E-1,2.408868662E-1,-4.105003835E0,4.153104659E0
1.121313846E1,-6.569223994E-1,1.765672016E-1,-3.771993794E0,3.832839704E0
1.122316346E1,-6.099567593E-1,-1.136333272E-2,-3.144230874E0,3.202868115E0
1.123318846E1,-5.111791240E-1,-1.679957682E-1,-2.334548796E0,2.395755571E0
1.124321346E1,-3.039788347E-1,-1.163394186E-1,-1.573658225E0,1.606965526E0
1.125323846E1,3.498378161E-2,-1.691517627E-1,-9.655255777E-1,9.808546401E-1
1.126326346E1,3.707746489E-1,-1.950467420E-1,-5.042428279E-1,6.555744819E-1
1.127328846E1,5.809226292E-1,4.685081542E-3,1.328686202E-1,5.959422131E-1
1.128331346E1,4.893292486E-1,1.714900643E-1,8.729243928E-1,1.015307319E0
1.129333846E1,2.951287083E-1,3.338419537E-1,1.591147832E0,1.652362801E0
1.130336346E1,5.962917432E-2,9.039545430E-1,2.336866048E0,2.506318491E0
1.131338846E1,-1.186414674E-2,1.399901634E0,2.989944488E0,3.301459281E0
1.132341346E1,-2.404064443E-2,1.930448161E0,3.973877685E0,4.418021267E0
1.133343846E1,1.067651146E-1,2.603269286E0,5.196659117E0,5.813232813E0
1.134346346E1,5.404232787E-1,2.809385977E0,6.494078502E0,7.096320348E0
1.135348846E1,1.247188295E0,2.542824864E0,8.050604385E0,8.534264344E0
1.136351346E1,1.993409225E0,2.133612154E0,9.794708946E0,1.022068024E1
1.137353846E1,2.304453908E0,2.126465249E0,1.148212592E1,1.190258703E1
1.138356346E1,2.042136558E0,2.546871137E0,1.235292368E1,1.277699487E1
1.139358846E1,1.417727309E0,3.099939677E0,1.288147689E1,1.332486487E1
1.140361346E1,8.905559407E-1,3.752873399E0,1.370964611E1,1.424189402E1
1.141363846E1,8.913331819E-1,3.606329895E0,1.506043011E1,1.551182276E1
1.142366346E1,1.162609855E0,2.330166308E0,1.667876399E1,1.688083247E1
1.143368846E1,1.426191300E0,8.109412757E-1,1.770850544E1,1.778434178E1
1.144371346E1,1.664805207E0,-1.958574584E-1,1.830730126E1,1.838388468E1
1.145373846E1,1.736138607E0,-1.025085609E-1,1.814467499E1,1.822783354E1
1.146376346E1,1.377249374E0,8.798371173E-1,1.722533364E1,1.730268905E1
1.147378846E1,1.139950067E0,2.062312522E0,1.567040463E1,1.584658324E1
1.148381346E1,1.302796192E0,2.240863538E0,1.339358306E1,1.364209714E1
1.149383846E1,1.479344098E0,1.482878886E0,1.068388275E1,1.088727420E1
1.150386346E1,1.323083984E0,9.799328247E-1,8.074010789E0,8.240174136E0
1.151388846E1,9.694305675E-1,6.136712761E-1,5.881503140E0,5.992367416E0
1.152391346E1,9.982949822E-1,-1.281402692E-1,3.991562004E0,4.116500945E0
1.153393846E1,1.183248553E0,-6.646161658E-1,2.405134630E0,2.761605398E0
1.154396346E1,1.019597047E0,-6.846781088E-1,7.409539050E-1,1.434355235E0
1.155398846E1,6.753099192E-1,-5.073057456E-1,-7.960563111E-1,1.160649929E0
1.156401346E1,2.624100284E-1,-2.882759178E-1,-2.455841684E0,2.486588105E0
1.157403846E1,-6.217088588E-1,3.398724796E-1,-4.296849811E0,4.354876979E0
1.158406383E1,-1.072572601E0,2.640528037E-1,-6.293557597E0,6.389757671E0
1.159408883E1,-1.661599179E0,2.052950107E-1,-8.293249801E0,8.460558501E0
1.160411383E1,-2.205940165E0,6.030131176E-1,-9.532290586E0,9.802773110E0
1.161413883E1,-1.962766307E0,3.451612861E-1,-9.963063734E0,1.016042454E1
1.162416383E1,-1.604737199E0,-3.153837557E-1,-9.924282660E0,1.005813276E1
1.163418883E1,-1.415926659E0,-6.056000720E-1,-9.799900104E0,9.920163396E0
1.164421383E1,-1.118354838E0,-8.327459814E-1,-9.559849682E0,9.660999398E0
1.165423883E1,-5.329704177E-1,-1.146361247E0,-9.400639941E0,9.485263985E0
1.166426383E1,-1.638200888E-1,-1.180746237E0,-9.371433098E0,9.446944322E0
1.167428883E1,-2.516882814E-2,-1.459548642E0,-9.526242226E0,9.637437764E0
1.168431383E1,-1.541455416E-1,-2.001195231E0,-9.756653513E0,9.960965363E0
1.169433883E1,-4.330299905E-1,-2.336755682E0,-9.909337177E0,1.019033392E1
1.170436383E1,-7.041733836E-1,-2.557427700E0,-9.891208470E0,1.024071783E1
1.171438883E1,-1.036633421E0,-2.640179543E0,-9.582877772E0,9.993833261E0
1.172441383E1,-1.307363453E0,-2.518194053E0,-9.011115391E0,9.447258918E0
1.173443883E1,-1.339177861E0,-2.649909309E0,-8.462745965E0,8.968471774E0
1.174446383E1,-1.177706269E0,-2.838052244E0,-8.128575836E0,8.689952688E0
1.175448883E1,-8.439619642E-1,-2.859801840E0,-7.805000278E0,8.355164133E0
1.176451383E1,-5.228507877E-1,-2.704798585E0,-7.792501270E0,8.265130632E0
1.177453883E1,-2.285049485E-1,-2.579210040E0,-8.041492084E0,8.448084628E0
1.178456383E1,-6.479738206E-3,-2.595385485E0,-8.489197599E0,8.877079682E0
1.179458883E1,1.244189550E-1,-2.769971066E0,-8.818360757E0,9.244009207E0
1.180461383E1,1.871153228E-1,-3.033782525E0,-9.054482435E0,9.551047101E0
1.181463883E1,7.804534547E-2,-3.125040312E0,-9.194731411E0,9.711593780E0
1.182466383E1,-1.699006449E-1,-3.128358023E0,-9.208670003E0,9.727029011E0
1.183468883E1,-3.309085518E-1,-3.137049616E0,-9.040087175E0,9.574641345E0
1.184471383E1,-5.307352098E-1,-2.957798250E0,-9.100407051E0,9.583718425E0
1.185473883E1,-6.324081670E-1,-2.702606756E0,-9.184285360E0,9.594535994E0
1.186476383E1,-5.766263875E-1,-2.695602376E0,-9.416114012E0,9.811318629E0
1.187478883E1,-5.259475097E-1,-2.725835405E0,-9.819458456E0,1.020434044E1
1.188481383E1,-4.188300272E-1,-2.782823246E0,-1.014573309E1,1.052879023E1
1.189483883E1,-3.166113786E-1,-2.942782308E0,-1.039101911E1,1.080432731E1
1.190486383E1,-2.686771473E-1,-3.158991001E0,-1.073427172E1,1.119267621E1
1.191488883E1,-3.383743498E-1,-3.289153237E0,-1.095144549E1,1.143971960E1
1.192491383E1,-4.742695985E-1,-3.401895741E0,-1.105517276E1,1.157647058E1
1.193493883E1,-4.269270688E-1,-3.744028316E0,-1.076705121E1,1.140742769E1
1.194496383E1,-2.405310631E-1,-4.151504987E0,-1.039056887E1,1.119181712E1
1.195498883E1,-7.559280396E-2,-4.433227638E0,-1.004683095E1,1.098171360E1
1.196501383E1,1.904558737E-1,-4.574511278E0,-9.578689411E0,1.061667169E1
1.197503883E1,6.693986765E-1,-4.771696347E0,-9.358231255E0,1.052585734E1
1.198506383E1,1.122195070E0,-5.084429998E0,-9.224659215E0,1.059269030E1
1.199508883E1,1.315564465E0,-5.042215440E0,-9.145337057E0,1.052577010E1
1.200511383E1,1.081332900E0,-4.225653821E0,-9.010968041E0,1.001114260E1
1.201513883E1,6.692968619E-1,-3.340798185E0,-8.252232753E0,8.927946920E0
1.202516383E1,-2.227645907E-1,-1.972866933E0,-7.006371776E0,7.282243711E0
1.203518883E1,-1.085455918E0,-4.819354078E-1,-4.714390710E0,4.861682430E0
1.204521383E1,-1.051831358E0,3.028623819E-1,-1.607049919E0,1.944398177E0
1.205523883E1,-5.498342992E-1,7.517993206E-1,1.899037650E0,2.115151051E0
1.206526383E1,-1.876895560E-1,1.582243984E0,6.407864816E0,6.602988330E0
1.207528883E1,1.971496383E-1,1.891794996E0,1.002347015E1,1.020233846E1
1.208531383E1,7.473810183E-1,6.634063768E-1,1.257979214E1,1.261942379E1
1.209533883E1,1.161280125E0,-1.116788076E0,1.502124909E1,1.510740584E1
1.210536383E1,1.085395691E0,-2.022165393E0,1.689128104E1,1.704648386E1
1.211538883E1,1.630890772E-2,-1.592968508E0,1.785178094E1,1.792272014E1
1.212541383E1,-7.276314627E-1,-7.762700643E-1,1.815405743E1,1.818520948E1
1.213543883E1,-7.522825199E-1,6.965539500E-2,1.844700059E1,1.846246494E1
1.214546383E1,-1.063716628E0,1.649792335E0,1.856939100E1,1.867285704E1
1.215548883E1,-1.282755884E0,2.929134322E0,1.873655588E1,1.900746740E1
1.216551383E1,-1.239068851E0,2.943661437E0,1.864042064E1,1.891205213E1
1.217553883E1,-7.826004061E-1,2.818511142E0,1.802587360E1,1.826166990E1
1.218556383E1,-1.246874884E-1,3.015392740E0,1.682674415E1,1.709524668E1
1.219558883E1,5.133457732E-1,3.276020391E0,1.526504056E1,1.562105300E1
1.220561383E1,9.820146527E-1,3.336811845E0,1.411106799E1,1.453344095E1
1.221563883E1,1.091318409E0,3.397262992E0,1.327395838E1,1.374519344E1
1.222566383E1,9.514022130E-1,3.264765378E0,1.267729563E1,1.312545937E1
1.223568883E1,6.592354117E-1,2.763281266E0,1.209350377E1,1.242268683E1
1.224571383E1,3.301613142E-1,2.265301245E0,1.142058982E1,1.164776666E1
1.225573883E1,6.006346713E-2,1.843575494E0,1.072726909E1,1.088469937E1
1.226576383E1,1.895892067E-2,1.323048316E0,9.693194266E0,9.783089050E0
1.227578883E1,-1.392521717E-2,1.011938364E0,8.248832597E0,8.310683027E0
1.228581383E1,-1.650845309E-1,1.072488109E0,6.527794717E0,6.617370136E0
1.229583883E1,-2.367757619E-1,1.244850870E0,4.648163391E0,4.817794035E0
1.230586383E1,-2.515658919E-1,1.346722962E0,2.688970172E0,3.017864927E0
1.231588883E1,-2.507014359E-1,1.428205227E0,9.054805201E-1,1.709536883E0
1.232591383E1,-2.731681561E-1,1.551732920E0,-6.088746589E-1,1.689148972E0
1.233593883E1,-3.066523279E-1,1.645787869E0,-1.900785382E0,2.532911059E0
1.234596383E1,-2.680428340E-1,1.519524410E0,-2.850622296E0,3.241426980E0
1.235598883E1,-1.690092003E-1,1.247867595E0,-3.536079108E0,3.753610675E0
1.236601383E1,-7.301737955E-2,1.017119947E0,-3.845492125E0,3.978400961E0
1.237603883E1,1.066678315E-2,8.431370683E-1,-4.019820428E0,4.107304489E0
1.238606383E1,8.188065299E-2,6.372798479E-1,-4.079750880E0,4.130035991E0
1.239608883E1,2.908879238E-2,5.531495609E-1,-3.873730668E0,3.913133001E0
1.240611383E1,7.895818720E-2,4.939446386E-1,-3.794771038E0,3.827597540E0
1.241613883E1,1.386264648E-1,5.645594155E-1,-3.817043082E0,3.861057177E0
1.242616383E1,1.245957602E-2,9.582330765E-1,-3.716728835E0,3.838285959E0
1.243618883E1,-6.338155188E-2,1.118363316E0,-3.938873329E0,4.095055168E0
1.244621383E1,-3.232844221E-2,9.144990463E-1,-4.454924024E0,4.547933783E0
1.245623883E1,2.787921817E-2,6.848440236E-1,-4.614756494E0,4.665379522E0
1.246626383E1,2.608203075E-2,6.350103973E-1,-4.574486135E0,4.618424177E0
1.247628883E1,1.428252955E-1,5.797154716E-1,-4.438074102E0,4.478054358E0
1.248631383E1,3.291653141E-1,4.391211446E-1,-4.184687351E0,4.220519566E0
1.249633883E1,4.193467018E-1,4.379830572E-1,-4.069179699E0,4.114110382E0
1.250636383E1,5.021085211E-1,5.845800626E-1,-4.011236131E0,4.084588365E0
1.251638883E1,6.267216036E-1,8.053221745E-1,-3.793028567E0,3.927898864E0
1.252641383E1,6.260811874E-1,1.038929550E0,-3.650130218E0,3.846401289E0
1.253643883E1,5.767527605E-1,1.045550352E0,-3.605341716E0,3.797934725E0
1.254646383E1,5.754758017E-1,8.673867872E-1,-3.688019006E0,3.832103395E0
1.255648883E1,5.098639756E-1,6.998330685E-1,-3.593721544E0,3.696560852E0
1.256651383E1,4.000624750E-1,5.409732459E-1,-3.395513797E0,3.461533762E0
1.257653883E1,3.502130612E-1,3.475698274E-1,-2.650714763E0,2.696246044E0
1.258656350E1,2.758721278E-1,2.602737847E-1,-1.638168801E0,1.681500786E0
1.259658850E1,1.655011267E-1,4.607950554E-1,-7.862575471E-1,9.262416728E-1
1.260661350E1,1.226068755E-1,5.278804530E-1,1.312372470E-1,5.575961205E-1
1.261663850E1,1.555096239E-1,4.434434064E-1,8.224219912E-1,9.472081236E-1
1.262666350E1,2.624144687E-1,4.150507525E-1,1.196640285E0,1.293474565E0
1.263668850E1,3.733803874E-1,3.692186317E-1,1.353542131E0,1.451830435E0
1.264671350E1,5.458015477E-1,1.734267352E-1,1.138547612E0,1.274467272E0
1.265673850E1,7.107242386E-1,-8.388846807E-2,8.949064153E-1,1.145872467E0
1.266676350E1,8.895846451E-1,-4.033962284E-1,6.902293092E-1,1.196037565E0
1.267678850E1,8.761050589E-1,-6.790096718E-1,4.850212759E-1,1.209900759E0
1.268681350E1,5.609604177E-1,-6.249741632E-1,3.154222012E-1,8.970844219E-1
1.269683850E1,2.174098933E-1,-3.252322210E-1,4.385148615E-1,5.876549524E-1
1.270686350E1,-1.218560838E-1,-4.371933907E-2,5.698199362E-1,5.843415486E-1
1.271688850E1,-3.104347820E-1,3.750296311E-2,5.519514298E-1,6.343710326E-1
1.272691350E1,-4.000415346E-1,7.767784797E-2,4.651916134E-1,6.184418442E-1
1.273693850E1,-4.215715308E-1,2.599015181E-1,2.167586231E-1,5.406067475E-1
1.274696350E1,-4.495537103E-1,4.600510338E-1,-1.583484471E-1,6.624346932E-1
1.275698850E1,-4.398421429E-1,5.461760619E-1,-5.307114190E-1,8.794452862E-1
1.276701350E1,-2.788744173E-1,4.588504177E-1,-7.392605513E-1,9.136852900E-1
1.277703850E1,-1.202504384E-1,2.803582396E-1,-9.028954661E-1,9.530378445E-1
1.278706350E1,-1.287779812E-2,1.462785514E-1,-8.929054981E-1,9.048997077E-1
1.279708850E1,1.853216529E-2,2.118895736E-2,-7.362416339E-1,7.367795848E-1
1.280711350E1,1.018899255E-2,-8.164591469E-2,-4.927203047E-1,4.995429608E-1
1.281713850E1,-5.342885993E-2,-9.730643928E-2,-2.141800010E-1,2.412390081E-1
1.282716350E1,-3.907010827E-2,-3.054797418E-2,1.432100058E-1,1.515544715E-1
1.283718850E1,5.628310516E-2,5.372388851E-2,4.221157604E-1,4.292269322E-1
1.284721350E1,1.189830544E-1,5.005077727E-2,5.481033772E-1,5.630980018E-1
1.285723850E1,1.971217361E-1,-1.600858010E-3,5.466310483E-1,5.810895323E-1
1.286726350E1,2.180908381E-1,-3.032271020E-2,3.667753726E-1,4.277934717E-1
1.287728850E1,1.898814578E-1,-5.440285988E-2,1.926581544E-1,2.759199225E-1
1.288731350E1,1.497495317E-1,-5.399585713E-2,1.014269722E-1,1.887535576E-1
1.289733850E1,1.640676818E-1,-8.843248554E-2,-2.334033072E-2,1.878384406E-1
1.290736350E1,8.696987763E-2,-1.625507313E-1,-1.264010149E-1,2.235256505E-1
1.291738850E1,-1.130788284E-1,-8.623283610E-2,-1.739225060E-1,2.246596571E-1
1.292741350E1,-2.977894838E-1,1.342953408E-1,-3.113104391E-1,4.512515980E-1
1.293743850E1,-3.538285774E-1,2.475155622E-1,-3.481402963E-1,5.546713276E-1
1.294746350E1,-3.169608960E-1,2.782287933E-1,-3.570923835E-1,5.526214268E-1
1.295748850E1,-2.847049866E-1,3.547948297E-1,-3.817132545E-1,5.938360963E-1
1.296751350E1,-2.079302046E-1,4.116750818E-1,-3.016923541E-1,5.511167022E-1
1.297753850E1,-1.277906057E-1,3.630736831E-1,-2.111306781E-1,4.390092271E-1
1.298756350E1,7.265896350E-3,2.328384662E-1,-1.514364535E-1,2.778480592E-1
1.299758850E1,9.833649941E-2,1.703163088E-1,-1.258314961E-1,2.334765033E-1
1.300761350E1,1.534910920E-1,1.058019320E-1,-4.084221661E-2,1.908445723E-1
1.301763850E1,1.119243322E-1,9.189301394E-2,-4.225431919E-2,1.508536034E-1
1.302766350E1,6.318186946E-2,1.559053342E-1,-5.873703539E-2,1.781809788E-1
1.303768850E1,3.565273963E-2,2.093415397E-1,-7.566764832E-2,2.254342279E-1
1.304771350E1,-1.222386014E-2,1.734618185E-1,-9.055875242E-2,1.960594626E-1
1.305773850E1,-6.168147393E-2,1.893154474E-1,-1.033314103E-1,2.243263765E-1
1.306776350E1,-1.058336531E-1,1.464288980E-1,-6.721257448E-2,1.927685516E-1
1.307778850E1,-9.109735407E-2,5.056774423E-2,-5.089241087E-2,1.159562942E-1
1.308781350E1,-1.176912583E-1,1.183169469E-2,-1.152170455E-1,1.651247676E-1
1.309783850E1,-1.610380201E-1,5.443903953E-3,-2.317888910E-1,2.822923484E-1
1.310786350E1,-2.134443482E-1,-1.624429598E-4,-3.435566640E-1,4.044622325E-1
1.311788850E1,-2.391596352E-1,5.237851728E-2,-4.627363676E-1,5.235129283E-1
1.312791350E1,-2.263415883E-1,1.062326525E-1,-5.718021423E-1,6.240781850E-1
1.313793850E1,-2.073807856E-1,1.546679172E-1,-7.237765396E-1,7.686230767E-1
1.314796350E1,-1.881691373E-1,1.841636118E-1,-8.363272548E-1,8.767936686E-1
1.315798850E1,-1.920460240E-1,2.384115570E-1,-8.922044170E-1,9.432658520E-1
1.316801350E1,-1.700190144E-1,3.086131185E-1,-9.978665274E-1,1.058246724E0
1.317803850E1,-1.494198219E-1,3.338835786E-1,-1.137820219E0,1.195173367E0
1.318806350E1,-1.466764910E-1,3.398018014E-1,-1.271241986E0,1.324022448E0
1.319808850E1,-1.410589248E-1,3.747583569E-1,-1.374576904E0,1.431713348E0
1.320811350E1,-1.132782916E-1,4.043490322E-1,-1.445394287E0,1.505156057E0
1.321813850E1,-5.747235574E-2,3.808114676E-1,-1.578916626E0,1.625207112E0
1.322816350E1,1.675855860E-2,2.916259338E-1,-1.804208091E0,1.827701663E0
1.323818850E1,5.382946730E-2,2.385540464E-1,-2.086362559E0,2.100646179E0
1.324821350E1,4.542219445E-2,2.804524894E-1,-2.437191989E0,2.453695492E0
1.325823850E1,6.296263542E-2,3.209018462E-1,-2.877745775E0,2.896267086E0
1.326826350E1,-2.041716143E-2,3.914165626E-1,-3.455755321E0,3.477911532E0
1.327828850E1,-5.691285029E-2,4.655714632E-1,-4.022196736E0,4.049452117E0
1.328831350E1,-7.719786465E-2,5.324630621E-1,-4.594733289E0,4.626126935E0
1.329833850E1,-1.360150069E-1,6.073851173E-1,-5.143891504E0,5.181412603E0
1.330836350E1,-1.764485397E-1,6.856762286E-1,-5.602708483E0,5.647267332E0
1.331838850E1,-1.693974554E-1,7.764897734E-1,-5.961787750E0,6.014527832E0
1.332841350E1,-1.192174547E-1,8.746026899E-1,-6.011166317E0,6.075628622E0
1.333843850E1,-6.526457459E-2,9.196662308E-1,-5.969772708E0,6.040548951E0
1.334846350E1,-4.882202145E-2,9.009022965E-1,-5.869990557E0,5.938922266E0
1.335848850E1,-6.972428251E-2,9.752149256E-1,-5.576645104E0,5.661702592E0
1.336851350E1,2.665233985E-4,9.828152827E-1,-5.120213204E0,5.213684801E0
1.337853850E1,5.478592560E-2,8.823470347E-1,-4.592301432E0,4.676619530E0
1.338856350E1,9.512016535E-2,6.948616196E-1,-4.097790125E0,4.157374703E0
1.339858850E1,1.665713865E-1,4.416357032E-1,-3.557659426E0,3.588833893E0
1.340861350E1,2.710581335E-1,2.621835950E-1,-2.806992127E0,2.832210718E0
1.341863850E1,2.631354486E-1,1.901404895E-1,-1.852664552E0,1.880893301E0
1.342866350E1,1.216341455E-1,1.845568371E-1,-6.001196229E-1,6.395308072E-1
1.343868850E1,-2.623382173E-1,2.599551480E-1,6.077303588E-1,7.111499197E-1
1.344871350E1,-7.736910767E-1,4.122098462E-1,1.887743168E0,2.081367125E0
1.345873850E1,-1.147317340E0,6.563644288E-1,3.713088359E0,3.941341967E0
1.346876350E1,-1.226387994E0,7.710392913E-1,5.886762711E0,6.062384375E0
1.347878850E1,-1.265710812E0,6.524196048E-1,8.510260440E0,8.628569287E0
1.348881350E1,-1.328344724E0,5.464387480E-2,1.074338168E1,1.082532843E1
1.349883850E1,-9.889307394E-1,-5.682996966E-1,1.172854630E1,1.178387656E1
1.350886350E1,-6.398450945E-1,-4.742888577E-1,1.245639718E1,1.248183409E1
1.351888850E1,-4.050011064E-1,9.775842905E-2,1.308386774E1,1.309049952E1
1.352891350E1,-2.922822107E-1,1.169365289E0,1.422980506E1,1.428076315E1
1.353893850E1,-1.020509432E-1,2.088974071E0,1.662123674E1,1.675230545E1
1.354896350E1,5.734786852E-1,1.880678562E0,1.978291278E1,1.988037897E1
1.355898850E1,1.956378224E0,8.535454776E-1,2.236109050E1,2.246273189E1
1.356901350E1,3.581177512E0,-2.510838255E-2,2.325507130E1,2.352921172E1
1.357903850E1,5.071409419E0,-8.870530200E-1,2.256529398E1,2.314516254E1
1.358906396E1,5.986605672E0,-1.132509485E0,2.036153453E1,2.125356708E1
1.359908896E1,6.395099759E0,-6.666898808E-1,1.808989710E1,1.919859769E1
1.360911396E1,6.050602278E0,-6.259590536E-3,1.607968868E1,1.718040206E1
1.361913896E1,5.024134680E0,8.364871761E-1,1.344974439E1,1.438183800E1
1.362916396E1,3.919432506E0,2.081698966E0,1.093191579E1,1.179839839E1
1.363918896E1,3.405376004E0,3.124447989E0,7.890567262E0,9.144386950E0
1.364921396E1,3.048413721E0,2.972463067E0,4.642805003E0,6.299523886E0
1.365923896E1,2.651303870E0,1.524361812E0,1.977877997E0,3.642127471E0
1.366926496E1,2.039182983E0,-2.233506279E-1,5.186445200E-1,2.115926483E0
1.367928996E1,7.679489648E-1,-1.077819746E0,-3.381935978E-1,1.365948728E0
1.368931396E1,-9.486990452E-2,-1.378968455E0,-7.655695134E-1,1.580079422E0
1.369933996E1,-4.936914542E-1,-1.740178448E0,-1.469485400E0,2.330523466E0
1.370936496E1,-9.586254247E-1,-2.023374159E0,-3.142295446E0,3.858370946E0
1.371938996E1,-1.557680416E0,-1.836067230E0,-4.609593987E0,5.200564189E0
1.372941496E1,-2.238498485E0,-1.009769704E0,-5.861758263E0,6.355369403E0
1.373943996E1,-2.537887767E0,-4.559857571E-1,-7.148587171E0,7.599414179E0
1.374946496E1,-2.384321758E0,-5.152774009E-1,-8.598706593E0,8.938023054E0
1.375948996E1,-1.907390836E0,-7.961159527E-1,-9.983407366E0,1.019511467E1
1.376951496E1,-1.309302974E0,-1.104898933E0,-1.078188676E1,1.091714972E1
1.377953996E1,-9.263606349E-1,-1.246505194E0,-1.090248442E1,1.101254220E1
1.378956496E1,-6.854519147E-1,-1.213227958E0,-1.073394193E1,1.082401385E1
1.379958996E1,-4.868948700E-1,-1.163217746E0,-1.064253358E1,1.071698013E1
1.380961496E1,-4.008202741E-1,-1.083074931E0,-1.067203629E1,1.073434054E1
1.381963996E1,-3.705821293E-1,-1.027847541E0,-1.068200463E1,1.073773833E1
1.382966496E1,-3.127318241E-1,-1.078776058E0,-1.074654853E1,1.080508511E1
1.383968996E1,-3.176074518E-1,-1.339592867E0,-1.074227305E1,1.083013452E1
1.384971496E1,-8.005993053E-2,-1.287456899E0,-1.068229699E1,1.075989887E1
1.385973996E1,-6.106788173E-2,-1.249647487E0,-1.057119755E1,1.064497843E1
1.386976496E1,-2.237561323E-1,-1.491965898E0,-1.009105344E1,1.020320482E1
1.387978996E1,-1.469048613E-1,-1.961034946E0,-9.557824792E0,9.758035348E0
1.388981496E1,-1.493109906E-1,-2.409308372E0,-9.054749068E0,9.370994680E0
1.389983996E1,-2.708770891E-1,-2.567484911E0,-8.545520319E0,8.926996734E0
1.390986496E1,-4.960492708E-1,-2.480701121E0,-8.077627877E0,8.464515051E0
1.391988996E1,-6.724163514E-1,-2.448850753E0,-7.790362358E0,8.193824469E0
1.392991496E1,-4.197213256E-1,-2.649107949E0,-7.552691753E0,8.014804528E0
1.393993996E1,-2.725340438E-1,-2.748360341E0,-7.503125491E0,7.995289332E0
1.394996496E1,-2.176327819E-1,-2.567712952E0,-7.775806299E0,8.191683431E0
1.395998996E1,-2.788506447E-1,-2.502322955E0,-8.004442956E0,8.391095572E0
1.397001496E1,-6.840276061E-1,-2.373412608E0,-8.434867610E0,8.789082590E0
1.398003996E1,-1.308328243E0,-1.699500538E0,-8.939746615E0,9.193426696E0
1.399006496E1,-1.867465901E0,-1.083974233E0,-8.878953699E0,9.137737566E0
1.400008996E1,-2.182296656E0,-6.879450944E-1,-8.670905088E0,8.967735623E0
1.401011496E1,-2.377855176E0,-5.249361241E-1,-8.303595280E0,8.653291151E0
1.402013996E1,-2.711516451E0,-4.698573261E-1,-8.246586097E0,8.693633856E0
1.403016496E1,-3.102942515E0,-3.322249793E-1,-8.363771900E0,8.926998716E0
1.404018996E1,-3.483763484E0,1.242204420E-2,-8.638158926E0,9.314212364E0
1.405021496E1,-3.848837902E0,3.188981516E-1,-9.307808960E0,1.007722962E1
1.406023996E1,-4.150263915E0,6.752130747E-1,-1.002816079E1,1.087403384E1
1.407026496E1,-4.243660614E0,1.023816324E0,-1.022342621E1,1.111644272E1
1.408028996E1,-3.951328483E0,9.562796679E-1,-9.723319706E0,1.053899491E1
1.409031496E1,-3.479369302E0,6.083402965E-1,-8.577456642E0,9.276251996E0
1.410033996E1,-2.910046964E0,4.224037358E-1,-7.360085639E0,7.925759198E0
1.411036496E1,-2.186587636E0,1.263597921E-1,-5.953613343E0,6.343709019E0
1.412038996E1,-1.479506943E0,-2.731874701E-1,-4.181379581E0,4.443816759E0
1.413041496E1,-1.006994981E0,-6.736678749E-1,-2.708287618E0,2.966932611E0
1.414043996E1,-6.224586180E-1,-1.140607367E0,-1.649380252E0,2.099736915E0
1.415046496E1,-5.307450405E-1,-1.309878340E0,-5.273744130E-1,1.508507652E0
1.416048996E1,-8.819906469E-1,-6.450531363E-1,1.239108027E0,1.652086485E0
1.417051496E1,-6.475658311E-1,-2.848131236E-1,3.399855940E0,3.472676264E0
1.418053996E1,3.310553900E-1,-8.278872375E-1,5.827024632E0,5.894846140E0
1.419056496E1,9.315785439E-1,-1.324757750E0,7.320526301E0,7.497528060E0
1.420058996E1,9.997074502E-1,-1.639617156E0,7.220630130E0,7.471630269E0
1.421061496E1,6.860575401E-1,-1.331248744E0,6.128414100E0,6.308752456E0
1.422063996E1,4.330287114E-2,-6.542812121E-1,5.015670835E0,5.058350815E0
1.423066496E1,-5.738490332E-1,-1.752682427E-1,4.231891338E0,4.274216416E0
1.424068996E1,-5.799698985E-1,3.324411070E-1,4.327645342E0,4.378972069E0
1.425071496E1,-3.116999368E-1,1.081113629E-1,5.883532709E0,5.892775412E0
1.426073996E1,3.667925488E-2,-5.182967569E-1,7.123223119E0,7.142148451E0
1.427076496E1,3.817959195E-1,-7.377503617E-1,9.037530187E0,9.075626458E0
1.428078996E1,7.685777597E-1,-5.769500309E-1,1.015075000E1,1.019614185E1
1.429081496E1,1.066654196E0,-4.111528158E-2,9.994434046E0,1.005127621E1
1.430083996E1,1.160110097E0,8.377555103E-1,9.487046000E0,9.594359361E0
1.431086496E1,1.351867780E0,1.370360769E0,9.135377494E0,9.335981849E0
1.432088996E1,1.680550590E0,9.977894904E-1,9.375482295E0,9.577029937E0
1.433091496E1,1.890419292E0,4.134257747E-1,1.038854340E1,1.056723426E1
1.434093996E1,1.695017771E0,9.907076351E-2,1.176226135E1,1.188417823E1
1.435096496E1,1.221801877E0,1.065268406E-1,1.276378180E1,1.282256891E1
1.436098996E1,9.796650222E-1,7.179902080E-2,1.317875285E1,1.321531026E1
1.437101496E1,8.518448149E-1,2.883091007E-1,1.334241290E1,1.337268648E1
1.438103996E1,8.606229474E-1,8.099877410E-1,1.332686399E1,1.337916499E1
1.439106496E1,1.167437828E0,9.430458109E-1,1.291235721E1,1.299927749E1
1.440108996E1,1.590814687E0,6.854218747E-1,1.212809122E1,1.225116693E1
1.441111496E1,1.977886183E0,4.102008891E-1,1.129305737E1,1.147229024E1
1.442113996E1,2.243386904E0,4.259521186E-1,1.011217826E1,1.036679165E1
1.443116496E1,2.380875994E0,5.095671928E-1,8.597975106E0,8.936073251E0
1.444118996E1,2.365478228E0,6.727943008E-1,6.957713587E0,7.379560812E0
1.445121496E1,2.093567644E0,9.716182302E-1,5.285565446E0,5.767518491E0
1.446123996E1,1.661614966E0,1.216668606E0,3.728262468E0,4.259247331E0
1.447126496E1,1.227836642E0,1.222510852E0,2.771117120E0,3.268211391E0
1.448128996E1,8.395008311E-1,1.116790708E0,1.889893774E0,2.350251392E0
1.449131496E1,5.137359652E-1,9.759546715E-1,1.093214734E0,1.552910370E0
1.450133996E1,2.005120248E-1,8.376510644E-1,2.819486457E-1,9.062888152E-1
1.451136496E1,-4.193411104E-2,6.457470547E-1,-3.102199334E-1,7.176239512E-1
1.452138996E1,-2.564383036E-1,2.804476655E-1,-4.782981473E-1,6.108851073E-1
1.453141496E1,-4.559499064E-1,1.196576038E-1,-9.017669535E-1,1.017542086E0
1.454143996E1,-6.390506771E-1,1.034005902E-1,-1.250453380E0,1.408087748E0
1.455146496E1,-8.362376462E-1,1.034344675E-1,-1.677377306E0,1.877121923E0
1.456148996E1,-9.028578977E-1,1.712348516E-1,-2.144105567E0,2.332737114E0
1.457151496E1,-8.031855288E-1,3.122428507E-1,-2.618187287E0,2.756357608E0
1.458153996E1,-7.053810529E-1,5.563749216E-1,-2.881216097E0,3.018032751E0
1.459156471E1,-6.494003950E-1,6.333668181E-1,-3.140759382E0,3.269135038E0
1.460158971E1,-5.809957194E-1,5.479025254E-1,-3.463167252E0,3.554051297E0
1.461161471E1,-5.529342006E-1,5.294275166E-1,-3.788515686E0,3.865084841E0
1.462163971E1,-5.217273914E-1,5.639049659E-1,-3.971447582E0,4.045069119E0
1.463166471E1,-5.749158577E-1,4.980285167E-1,-3.954242150E0,4.026734611E0
1.464168971E1,-6.285347521E-1,3.836741913E-1,-3.850162296E0,3.919950450E0
1.465171471E1,-6.743247364E-1,4.093660529E-1,-3.840976905E0,3.921147536E0
1.466173971E1,-8.864835012E-1,6.204761195E-1,-3.859271674E0,4.008094493E0
1.467176471E1,-8.343302114E-1,7.142102755E-1,-3.565298229E0,3.730623900E0
1.468178971E1,-7.594597578E-1,7.164504169E-1,-3.481052715E0,3.634254852E0
1.469181471E1,-7.739248192E-1,8.305060592E-1,-3.477346750E0,3.657955762E0
1.470183971E1,-6.686690171E-1,9.206593072E-1,-3.317231859E0,3.506958657E0
1.471186471E1,-5.037368245E-1,7.996840699E-1,-3.091239898E0,3.232492769E0
1.472188971E1,-3.998234700E-1,5.982651420E-1,-2.963143190E0,3.049261805E0
1.473191471E1,-3.570380775E-1,5.185447519E-1,-2.865779448E0,2.934119407E0
1.474193971E1,-3.184039157E-1,5.046285979E-1,-2.612019060E0,2.679304881E0
1.475196471E1,-2.795160578E-1,5.671040872E-1,-2.236868720E0,2.324503806E0
1.476198971E1,-3.918882137E-1,6.475452928E-1,-1.929568301E0,2.072709605E0
1.477201471E1,-4.377526769E-1,6.396299900E-1,-1.422086701E0,1.619593935E0
1.478203971E1,-4.082609291E-1,5.331015049E-1,-9.125772858E-1,1.132992279E0
1.479206471E1,-3.793364344E-1,4.709674931E-1,-5.581249201E-1,8.229276617E-1
1.480208971E1,-3.163514699E-1,4.674871572E-1,-1.549886370E-1,5.853579864E-1
1.481211471E1,-2.139050357E-1,3.827210952E-1,1.660018677E-1,4.688149113E-1
1.482213971E1,7.799016237E-3,2.722193905E-1,1.917243540E-1,3.330502202E-1
1.483216471E1,1.699363129E-1,2.015805486E-1,2.391511202E-3,2.636641564E-1
1.484218971E1,2.863160042E-1,2.670560433E-1,-2.390464550E-1,4.587362991E-1
1.485221471E1,3.560167882E-1,4.004402782E-1,-5.658221948E-1,7.792657608E-1
1.486223971E1,3.103927186E-1,5.713500063E-1,-8.682413578E-1,1.084724631E0
1.487226471E1,2.573466320E-1,7.296861012E-1,-9.760838950E-1,1.245555645E0
1.488228971E1,1.847043331E-1,7.872004107E-1,-9.751647127E-1,1.266785852E0
1.489231471E1,1.594123480E-1,6.337117307E-1,-7.507181704E-1,9.952791697E-1
1.490233971E1,2.189151493E-1,3.631287931E-1,-3.179031748E-1,5.299516879E-1
1.491236471E1,3.564436349E-1,1.782133938E-1,-1.357624072E-1,4.210029808E-1
1.492238971E1,4.356312340E-1,4.912929263E-2,-2.811879230E-1,5.208213777E-1
1.493241471E1,4.713444923E-1,-5.319537330E-2,-5.971299416E-1,7.626005149E-1
1.494243971E1,3.529393986E-1,-6.068792235E-2,-9.628048682E-1,1.027249949E0
1.495246471E1,7.334973894E-2,-2.018086083E-2,-1.284650820E0,1.286901388E0
1.496248971E1,-1.901445094E-1,1.201187664E-1,-1.538117094E0,1.554473431E0
1.497251471E1,-3.515266382E-1,2.692230214E-1,-1.508779859E0,1.572408559E0
1.498253971E1,-4.324461094E-1,3.684166130E-1,-1.325458539E0,1.442075163E0
1.499256471E1,-4.163591035E-1,3.328324685E-1,-8.084547472E-1,9.683653409E-1
1.500258971E1,-3.808263780E-1,2.437289419E-1,-3.466118342E-1,5.697124633E-1
1.501261471E1,-1.836780737E-1,8.000672087E-2,-1.099568903E-1,2.285371477E-1
1.502263971E1,2.616073519E-2,-1.635840440E-1,8.844030619E-2,1.877919361E-1
1.503266471E1,2.603770246E-1,-3.774690895E-1,8.190428853E-2,4.658190861E-1
1.504268971E1,5.060116837E-1,-5.460556092E-1,6.604605496E-2,7.473865357E-1
1.505271471E1,5.774218281E-1,-5.562648843E-1,5.167476833E-2,8.034406455E-1
1.506273971E1,3.503038392E-1,-3.322157334E-1,-5.577892900E-2,4.859952286E-1
1.507276471E1,1.147038062E-1,-1.715960450E-2,-2.167732412E-1,2.458496558E-1
1.508278971E1,-8.652271181E-3,1.566114951E-1,-1.763701504E-1,2.360263802E-1
1.509281471E1,-7.391699195E-2,1.211206503E-1,-1.318897963E-2,1.425057290E-1
1.510283971E1,-1.185418455E-1,6.328569409E-2,1.098282516E-1,1.735496847E-1
1.511286471E1,-9.856804915E-2,1.177982258E-1,1.343175602E-1,2.040423713E-1
1.512288971E1,2.641596615E-2,1.315488670E-1,1.801053518E-1,2.245903948E-1
1.513291471E1,1.571562729E-1,2.540929489E-2,7.537938058E-2,1.761413563E-1
1.514293971E1,2.340153645E-1,-2.021415342E-2,-1.103118163E-1,2.595004810E-1
1.515296471E1,2.524012032E-1,5.789558452E-2,-2.460870874E-1,3.572353855E-1
1.516298971E1,1.250194640E-1,2.044839653E-1,-3.816384101E-1,4.506566703E-1
1.517301471E1,8.493884727E-3,3.596180518E-1,-4.886015260E-1,6.067361374E-1
1.518303971E1,-9.511687629E-2,4.143817214E-1,-5.323036158E-1,6.812536756E-1
1.519306471E1,-2.383596265E-1,4.714511674E-1,-5.371065187E-1,7.533690512E-1
1.520308971E1,-2.962173137E-1,4.813788991E-1,-5.390092027E-1,7.810257755E-1
1.521311471E1,-2.523269436E-1,3.527716200E-1,-5.643334937E-1,7.117506547E-1
1.522313971E1,-2.013882666E-1,1.925215122E-1,-5.114729100E-1,5.824313731E-1
1.523316471E1,-1.835919003E-1,1.156569023E-1,-5.170499843E-1,5.607345105E-1
1.524318971E1,-1.203016381E-1,8.238558747E-2,-5.524203765E-1,5.713389025E-1
1.525321471E1,-2.675108470E-2,5.263071500E-2,-5.242993623E-1,5.276129585E-1
1.526323971E1,7.539874949E-2,3.922410931E-2,-5.465491873E-1,5.531179949E-1
1.527326471E1,1.378300557E-1,-2.477545671E-2,-6.166058475E-1,6.323082466E-1
1.528328971E1,1.195811880E-1,-7.981485911E-3,-8.553804070E-1,8.637354950E-1
1.529331471E1,6.041153178E-2,2.306350160E-2,-1.115213129E0,1.117086300E0
1.530333971E1,1.428759836E-2,-1.872600049E-2,-1.358589447E0,1.358793614E0
1.531336471E1,-2.565911718E-2,-5.823110506E-2,-1.708171667E0,1.709356515E0
1.532338971E1,-5.924018830E-2,-8.909987211E-2,-2.065939404E0,2.068708246E0
1.533341471E1,-7.096575603E-2,-1.067301409E-1,-2.305383469E0,2.308943569E0
1.534343971E1,-1.296353292E-1,-1.529650984E-1,-2.480776550E0,2.488866395E0
1.535346471E1,-1.655069739E-1,-2.129452153E-1,-2.566260504E0,2.580393613E0
1.536348971E1,-1.905508178E-1,-2.439191591E-1,-2.649401479E0,2.667420920E0
1.537351471E1,-2.501014933E-1,-2.329215697E-1,-2.726806335E0,2.748140463E0
1.538353971E1,-3.223313443E-1,-1.886651091E-1,-2.835946954E0,2.860434782E0
1.539356471E1,-3.858080596E-1,-1.728916784E-1,-2.953770103E0,2.983872855E0
1.540358971E1,-4.381494836E-1,-2.055355505E-1,-3.117159435E0,3.154505156E0
1.541361571E1,-4.723513097E-1,-1.706588460E-1,-3.436885772E0,3.473387973E0
1.542364071E1,-4.754102075E-1,-1.077428970E-1,-3.857413428E0,3.888092303E0
1.543366571E1,-4.384802898E-1,-3.034513062E-2,-4.285826640E0,4.308305442E0
1.544369071E1,-3.881444608E-1,4.567301259E-2,-4.663467309E0,4.679815113E0
1.545371571E1,-3.879400275E-1,1.112878994E-1,-5.055438334E0,5.071522376E0
1.546374071E1,-3.723829986E-1,1.312323134E-1,-5.396616935E0,5.411041061E0
1.547376571E1,-2.941792667E-1,1.598939758E-1,-5.563798771E0,5.573864394E0
1.548379071E1,-2.375473020E-1,1.903624096E-1,-5.577736779E0,5.586037428E0
1.549381571E1,-1.852750213E-1,1.943074164E-1,-5.480874728E0,5.487446582E0
1.550384071E1,-8.645967152E-2,1.834673729E-1,-5.291424941E0,5.295310516E0
1.551386571E1,-6.252731021E-2,1.438550816E-1,-4.901354261E0,4.903863532E0
1.552389071E1,2.223644949E-2,6.523804285E-2,-4.415539518E0,4.416077411E0
1.553391571E1,6.847710796E-2,-4.492397513E-3,-3.757883293E0,3.758509830E0
1.554394071E1,6.792059921E-2,3.873564754E-2,-2.926598677E0,2.927642990E0
1.555396571E1,5.974546082E-2,1.405754697E-1,-1.986393882E0,1.992257924E0
1.556399071E1,1.027208879E-1,1.284754426E-1,-9.831420690E-1,9.968078290E-1
1.557401571E1,2.531291816E-1,-5.078992015E-3,-1.980516261E-1,3.214414804E-1
1.558404071E1,3.287249822E-1,-1.275761043E-1,6.370412815E-1,7.281190635E-1
1.559406583E1,2.420077043E-1,-3.193372775E-2,1.447978756E0,1.468410696E0
1.560409083E1,2.567553324E-1,1.277990842E-1,2.432759215E0,2.449606766E0
1.561411583E1,3.122788111E-1,1.908496654E-1,3.511250076E0,3.530271766E0
1.562414083E1,2.532932691E-1,3.422718480E-1,4.639317139E0,4.658816482E0
1.563416583E1,9.594772909E-2,6.015563569E-1,6.064047366E0,6.094566963E0
1.564419083E1,-6.803469300E-2,9.954466572E-1,7.488365364E0,7.554545558E0
1.565421583E1,-3.276626893E-1,1.392389570E0,8.876723571E0,8.991236450E0
1.566424083E1,-5.243057942E-1,1.601945300E0,1.007871581E1,1.021869061E1
1.567426583E1,-4.406227462E-1,1.580558378E0,1.115369717E1,1.127374267E1
1.568429083E1,-2.947868289E-1,1.449536016E0,1.269376139E1,1.277965697E1
1.569431583E1,-1.573677594E-1,1.561973149E0,1.436951375E1,1.445501471E1
1.570434083E1,-5.771475937E-2,1.721983960E0,1.600054778E1,1.609304474E1
1.571436583E1,1.883508760E-1,1.670352899E0,1.745905153E1,1.753978435E1
1.572439083E1,6.948381577E-1,1.373476751E0,1.831994878E1,1.838449787E1
1.573441583E1,1.273285295E0,7.905958157E-1,1.841163780E1,1.847253918E1
1.574444083E1,1.729944651E0,3.065172937E-1,1.807070069E1,1.815590496E1
1.575446583E1,2.102570456E0,1.301957117E-1,1.761207082E1,1.773760954E1
1.576449083E1,2.560847152E0,-1.395306819E-1,1.679691751E1,1.699158158E1
1.577451583E1,3.144733150E0,-6.418745168E-1,1.538038975E1,1.571170705E1
1.578454083E1,3.678886532E0,-1.309869131E0,1.359856539E1,1.414817811E1
1.579456583E1,3.770504216E0,-1.474968919E0,1.160342056E1,1.228949161E1
1.580459083E1,3.293281664E0,-8.337052171E-1,9.554809967E0,1.014076733E1
1.581461583E1,2.617612506E0,5.549343869E-2,7.878495101E0,8.302147903E0
1.582464083E1,2.113938466E0,4.454734866E-1,6.489261566E0,6.839422354E0
1.583466583E1,1.906790034E0,9.748419464E-2,5.645491975E0,5.959608296E0
1.584469083E1,1.603115474E0,-6.677327317E-1,4.975259559E0,5.269635082E0
1.585471583E1,1.169220498E0,-1.548126650E0,4.252396939E0,4.674040268E0
1.586474083E1,6.144283444E-1,-1.948790731E0,2.826123047E0,3.487445910E0
1.587476583E1,-1.525290057E-2,-1.801813071E0,1.084949110E0,2.103301587E0
1.588479083E1,-5.909283847E-1,-1.509262839E0,-9.085859764E-1,1.858117098E0
1.589481583E1,-9.061742923E-1,-9.866844584E-1,-2.944545536E0,3.234972408E0
1.590484083E1,-1.196371459E0,-5.946038713E-1,-4.619608514E0,4.808912689E0
1.591486583E1,-1.486217062E0,-4.475086831E-1,-6.125955931E0,6.319528562E0
1.592489083E1,-1.767712841E0,-2.051747956E-1,-7.259616441E0,7.474552578E0
1.593491583E1,-2.019035233E0,-5.197692320E-2,-7.569686100E0,7.834497593E0
1.594494083E1,-2.086753884E0,-6.092887880E-1,-7.411677961E0,7.723907353E0
1.595496583E1,-1.814727524E0,-1.193681667E0,-7.809897321E0,8.106331357E0
1.596499083E1,-1.758633430E0,-1.296705294E0,-8.788576795E0,9.056120485E0
1.597501583E1,-2.058212308E0,-1.235148439E0,-9.429142778E0,9.729879912E0
1.598504083E1,-2.454464080E0,-1.026083875E0,-9.907547929E0,1.025849638E1
1.599506583E1,-2.611944800E0,-4.775202118E-1,-1.047688313E1,1.080811553E1
1.600509083E1,-2.497342882E0,1.127694742E-1,-1.058982912E1,1.088089698E1
1.601511583E1,-1.472725781E0,-2.644326169E-1,-1.080965870E1,1.091272500E1
1.602514083E1,-1.155352510E0,-8.155864500E-1,-1.138986154E1,1.147732401E1
1.603516583E1,-1.018257669E0,-8.354811627E-1,-1.130101426E1,1.137751295E1
1.604519083E1,-9.633552374E-1,-1.088343126E0,-1.120587539E1,1.129974280E1
1.605521583E1,-1.261241346E0,-1.202901045E0,-1.107801315E1,1.121428001E1
1.606524083E1,-1.565019987E0,-1.037488138E0,-1.030093223E1,1.047066731E1
1.607526583E1,-1.701458332E0,-1.005975373E0,-9.508314078E0,9.711590164E0
1.608529083E1,-1.737789861E0,-1.022871707E0,-8.779434673E0,9.008032710E0
1.609531583E1,-1.802527163E0,-8.391257322E-1,-8.220870627E0,8.457892766E0
1.610534083E1,-1.693790879E0,-8.605081227E-1,-7.701899832E0,7.932758839E0
1.611536583E1,-1.639969743E0,-9.393278588E-1,-7.445489486E0,7.681611242E0
1.612539083E1,-1.581846666E0,-9.074663807E-1,-7.480238319E0,7.699331102E0
1.613541583E1,-1.507236486E0,-1.005933785E0,-7.575892920E0,7.789596789E0
1.614544083E1,-1.442209309E0,-1.113818276E0,-7.659074825E0,7.872863902E0
1.615546583E1,-1.467050766E0,-1.060334525E0,-7.731697243E0,7.940761268E0
1.616549083E1,-1.535279733E0,-8.917935039E-1,-7.800195621E0,7.999714447E0
1.617551583E1,-1.631323904E0,-7.193089744E-1,-7.860102684E0,8.059766577E0
1.618554083E1,-1.742124255E0,-5.780409752E-1,-8.190867394E0,8.394011970E0
1.619556583E1,-1.913626160E0,-2.976088049E-1,-8.618993508E0,8.833888451E0
1.620559083E1,-2.024919724E0,-1.036441632E-1,-8.864366650E0,9.093296328E0
1.621561583E1,-2.014057498E0,-3.431555450E-2,-9.095607657E0,9.315990758E0
1.622564083E1,-1.932657385E0,-3.792927995E-2,-9.554684837E0,9.748261667E0
1.623566583E1,-1.750435780E0,-3.189166434E-2,-9.984921795E0,1.013724350E1
1.624569083E1,-1.763810263E0,5.623245366E-2,-1.064125187E1,1.078658566E1
1.625571583E1,-2.014778021E0,3.766013262E-1,-1.151852484E1,1.169946894E1
1.626574083E1,-2.537200719E0,9.509794593E-1,-1.215741852E1,1.245570449E1
1.627576583E1,-2.723327826E0,1.740567288E0,-1.211804103E1,1.254165090E1
1.628579083E1,-2.651626344E0,1.983097222E0,-1.164366812E1,1.210532131E1
1.629581583E1,-2.310103488E0,1.427541422E0,-1.086524233E1,1.119946175E1
1.630584083E1,-1.681245531E0,8.429080036E-1,-9.458804533E0,9.643965141E0
1.631586583E1,-1.356961582E0,2.877740805E-1,-7.413852541E0,7.542504104E0
1.632589083E1,-1.483433056E0,-4.199805035E-1,-5.048560254E0,5.278723131E0
