"Time (s)","Linear Acceleration x (m/s^2)","Linear Acceleration y (m/s^2)","Linear Acceleration z (m/s^2)","Absolute acceleration (m/s^2)"
8.097916609E-3,-4.175969737E0,1.478765516E0,-7.173388282E-1,4.487766225E0
1.812291658E-2,-4.437372437E0,1.613056764E0,-6.499331494E-1,4.765987764E0
2.814691653E-2,-4.665740706E0,1.794823310E0,-6.599576890E-1,5.042427114E0
3.817191650E-2,-4.730364718E0,1.867861465E0,-6.999257469E-1,5.133726996E0
4.819691670E-2,-4.689017887E0,1.680514337E0,-6.315881681E-1,5.020948197E0
5.822091666E-2,-4.428548988E0,1.402783288E0,-5.354201087E-1,4.676165286E0
6.824591663E-2,-3.963433973E0,1.017230167E0,-3.058057972E-1,4.103301507E0
7.826991659E-2,-3.401961522E0,7.261996257E-1,-4.171279393E-2,3.478857291E0
8.829491655E-2,-2.803975548E0,2.538960439E-1,-1.522147179E-1,2.819558724E0
9.831891651E-2,-2.248296518E0,1.107784241E-1,-1.650049905E-1,2.257063522E0
1.083439167E-1,-2.081101234E0,2.225573069E-1,-4.492275453E-1,2.140635300E0
1.183679167E-1,-2.049599944E0,3.083470702E-1,-7.722848944E-1,2.211868397E0
1.283929166E-1,-1.851085804E0,2.610553747E-1,-6.984651124E-1,1.995625735E0
1.384169166E-1,-1.763125554E0,-1.775448561E-2,-6.956350601E-1,1.895477533E0
1.484419166E-1,-1.590799338E0,-2.252850330E-1,-6.189745545E-1,1.721779712E0
1.584659165E-1,-1.291076910E0,-5.817815852E-1,-5.603000844E-1,1.522920085E0
1.684909167E-1,-7.966509730E-1,-1.071678270E0,-5.280317131E-1,1.435954239E0
1.785159167E-1,-1.249789721E-1,-1.492458526E0,-5.137574172E-1,1.583350523E0
1.885358333E-1,6.036770689E-1,-1.877024052E0,-5.700322632E-1,2.052457570E0
1.985608332E-1,1.069093800E0,-2.051077536E0,-6.040887129E-1,2.390565578E0
2.085848332E-1,1.346065296E0,-2.220520490E0,-6.308045682E-1,2.672174663E0
2.186098334E-1,1.536934202E0,-2.449113877E0,-1.271219766E0,3.158532131E0
2.286338334E-1,1.638512033E0,-2.419797692E0,-1.266480013E0,3.184982602E0
2.386588333E-1,1.651453675E0,-2.436305552E0,-9.779911105E-1,3.101507794E0
2.486828333E-1,1.656919068E0,-2.543941682E0,-9.033630972E-1,3.167504532E0
2.587078332E-1,1.803806387E0,-2.719995498E0,-9.906341064E-1,3.410784210E0
2.687318332E-1,2.040115761E0,-3.178834112E0,-9.208159395E-1,3.887796371E0
2.787568332E-1,2.421315629E0,-3.516558178E0,-5.585084975E-1,4.305912509E0
2.887808334E-1,2.772143891E0,-3.591433529E0,-2.968374109E-1,4.546568925E0
2.988058333E-1,2.958429165E0,-3.525530730E0,-2.480577452E-1,4.609034899E0
3.088308333E-1,2.894490446E0,-3.190934340E0,-1.958337772E-1,4.312596407E0
3.188548333E-1,2.480318128E0,-2.479593074E0,-1.271874654E-1,3.509492340E0
3.288798332E-1,1.698936574E0,-1.480482844E0,-1.506812856E-2,2.253539878E0
3.389038332E-1,8.694873995E-1,-6.027877074E-1,2.451597921E-1,1.086031621E0
3.489288334E-1,3.440776509E-1,-4.758464098E-2,5.591576115E-1,6.582635965E-1
3.589528333E-1,2.530902976E-1,-2.204166412E-2,6.128887725E-1,6.634554854E-1
3.689778333E-1,4.787822968E-1,-3.414189219E-1,2.902674794E-1,6.557854661E-1
3.790018333E-1,7.828351718E-1,-7.857921088E-1,-1.278528055E-1,1.116533244E0
3.890268332E-1,1.052653769E0,-1.392920204E0,-2.443843051E-1,1.762960675E0
3.990508332E-1,1.137641879E0,-1.751253952E0,-2.787905645E-1,2.106856337E0
4.090758334E-1,1.050853411E0,-2.100739108E0,-3.909776560E-1,2.381231030E0
4.190998334E-1,8.337001008E-1,-2.195805479E0,-3.067658369E-1,2.368696443E0
4.291248333E-1,5.741673410E-1,-2.094271502E0,-1.177417271E-1,2.174742370E0
4.391498333E-1,1.240077496E-1,-2.016452664E0,3.202403069E-2,2.020515975E0
4.491738332E-1,-4.298650753E-1,-1.911177639E0,1.825477338E-1,1.967411402E0
4.591988332E-1,-9.959971726E-1,-1.494549490E0,3.406061590E-1,1.828032030E0
4.692228332E-1,-1.597912475E0,-9.755693400E-1,5.368750421E-1,1.947638218E0
4.792478334E-1,-2.137842030E0,-4.558886933E-1,8.311314920E-1,2.338585599E0
4.892718333E-1,-2.630112099E0,3.865594268E-3,1.009326558E0,2.817134129E0
4.992968333E-1,-3.057419018E0,5.619571853E-1,9.487610988E-1,3.250193002E0
5.093208333E-1,-3.319666640E0,1.070103030E0,7.840531468E-1,3.574919080E0
5.193458332E-1,-3.349516675E0,1.454445777E0,6.381791496E-1,3.707013232E0
5.293698332E-1,-3.399408043E0,2.056858678E0,5.285029622E-1,4.008236276E0
5.393948334E-1,-3.576916062E0,2.550451972E0,8.929752627E-2,4.393985414E0
5.494198333E-1,-3.702525364E0,2.615683510E0,-4.177543223E-1,4.552473280E0
5.594438333E-1,-3.694298916E0,2.593747095E0,-8.707100523E-1,4.597119149E0
5.694688333E-1,-3.669450588E0,3.002326552E0,-1.119917214E0,4.871657511E0
5.794928332E-1,-3.313259261E0,3.069537957E0,-1.095871124E0,4.647653571E0
5.895178332E-1,-2.913871627E0,2.958560727E0,-1.712220279E0,4.491706549E0
5.995418334E-1,-2.440541275E0,2.905046425E0,-1.630862705E0,4.129800190E0
6.095668334E-1,-2.080734614E0,3.191062979E0,-1.064689677E0,3.955490308E0
6.195908333E-1,-1.792727668E0,3.688668632E0,-5.225574768E-1,4.134394162E0
6.296158333E-1,-1.409502908E0,2.762090773E0,-9.831685642E-2,3.102500619E0
6.396398332E-1,-1.048483534E0,2.064194595E0,2.698741454E-1,2.330890195E0
6.496648332E-1,-5.871931833E-1,1.495076324E0,2.530885434E-1,1.626069759E0
6.596898332E-1,-3.136803156E-1,1.297836292E0,1.098861390E-1,1.339719875E0
6.697138334E-1,-8.469165623E-2,1.385648607E0,1.572023928E-1,1.397106772E0
6.797388333E-1,-1.512791634E-2,1.693203964E0,6.976539575E-2,1.694708154E0
6.897628333E-1,3.810811704E-1,1.930725465E0,2.891149932E-1,1.989098077E0
6.997878333E-1,9.366765851E-1,1.621582589E0,3.380128457E-1,1.902930845E0
7.098118332E-1,1.328987918E0,1.219039798E0,9.679480791E-2,1.806000042E0
7.198368332E-1,1.701360830E0,1.182330979E0,-5.475742042E-2,2.072566909E0
7.298608334E-1,2.211363750E0,1.428564246E0,-2.403315268E-2,2.632774778E0
7.398858333E-1,2.679395356E0,1.084093078E0,1.238322600E-1,2.893052316E0
7.499098333E-1,2.958904544E0,4.663581330E-1,-3.306775868E-1,3.013627992E0
7.599348333E-1,3.364693124E0,-1.306981337E-1,-4.459088118E-1,3.396627222E0
7.699598332E-1,3.959043299E0,-1.203178056E0,2.441715395E-1,4.145030883E0
7.799838332E-1,4.280462404E0,-2.079785610E0,8.982111154E-1,4.843000082E0
7.900088332E-1,4.178672320E0,-2.616798574E0,1.100058608E-1,4.931636485E0
8.000328334E-1,4.157543991E0,-2.919940453E0,-7.293718133E-1,5.132563446E0
8.100578333E-1,3.981473803E0,-2.937475083E0,-4.018230716E-1,4.964106696E0
8.200818333E-1,3.835796272E0,-3.062844064E0,-1.285634761E0,5.074170232E0
8.301068333E-1,3.407669574E0,-3.469520836E0,-9.428196698E-1,4.953654781E0
8.401308332E-1,2.031789325E0,-2.917071809E0,4.197376978E-1,3.579616674E0
8.501558332E-1,1.462648836E0,-1.693225014E0,3.921932191E-1,2.271600336E0
8.601798334E-1,1.533072701E0,-1.149308828E0,-1.125162897E-1,1.919344316E0
8.702048333E-1,1.411882140E0,-1.070442753E0,4.093160592E-2,1.772268112E0
8.802298333E-1,1.180069275E0,-1.102501282E0,4.147300693E-1,1.667355272E0
8.902538333E-1,1.108119872E0,-1.082881535E0,7.530622461E-1,1.722691155E0
9.002788332E-1,1.035136095E0,-1.074484348E0,1.025625526E0,1.810505750E0
9.103028332E-1,1.036062879E0,-1.407238281E0,6.779127342E-1,1.874382977E0
9.203278334E-1,8.515650988E-1,-1.673206487E0,-7.584072590E-2,1.878971761E0
9.303518333E-1,8.071578348E-1,-1.213863258E0,-7.411667436E-1,1.635327466E0
9.403768333E-1,1.031838266E0,-1.036519547E0,-8.876400805E-1,1.710838359E0
9.504008333E-1,1.121007720E0,-2.074958149E0,-1.144403599E0,2.621405964E0
9.604258332E-1,1.103927418E0,-2.579261788E0,-1.067112179E0,3.001662126E0
9.704498332E-1,8.435152370E-1,-2.204020232E0,-9.620669496E-1,2.548488955E0
9.804748332E-1,7.049309635E-1,-1.901932021E0,-1.016319755E0,2.268739501E0
9.904998334E-1,7.018097198E-1,-2.185311481E0,-6.969068295E-1,2.398708461E0
1.000523833E0,1.525328064E-1,-2.190192736E0,1.746154010E-1,2.202430707E0
1.010548833E0,-3.383146352E-1,-2.192233415E0,6.494011259E-1,2.311290972E0
1.020572833E0,-8.860578239E-1,-1.525475999E0,5.830504310E-1,1.857989046E0
1.030597833E0,-1.513368754E0,-2.813393658E-1,6.666071427E-1,1.677439092E0
1.040621833E0,-1.995406196E0,5.315732986E-1,7.518934608E-1,2.197625954E0
1.050646833E0,-2.285685369E0,9.433745706E-1,8.572719812E-1,2.617103062E0
1.060670833E0,-3.398151476E0,1.408590158E0,5.689142025E-1,3.722260477E0
1.070695833E0,-3.735087923E0,2.382257398E0,5.465556192E-1,4.463715397E0
1.080720833E0,-3.517727036E0,2.796746051E0,1.037810794E-1,4.495215511E0
1.090744833E0,-3.587802408E0,2.844711930E0,-1.989959514E-1,4.583046091E0
1.100769833E0,-3.875610548E0,2.780689012E0,-4.149370972E-1,4.787980921E0
1.110793833E0,-3.975823054E0,2.796823819E0,-4.696904246E-1,4.883646335E0
1.120818833E0,-4.063958720E0,2.842205814E0,-4.961409259E-1,4.983979352E0
1.130842833E0,-4.071021572E0,2.712187711E0,-4.046273232E-1,4.908452107E0
1.140867833E0,-3.901597329E0,2.468079906E0,-1.330323422E-1,4.618612101E0
1.150891833E0,-3.338361357E0,2.108695414E0,7.299430132E-2,3.949250697E0
1.160916833E0,-3.307686864E0,1.955208342E0,7.700876570E-1,3.918758356E0
1.170940833E0,-3.321518453E0,1.764340020E0,3.340666695E-1,3.775841771E0
1.180969417E0,-2.922957616E0,1.669423338E0,1.721934478E-1,3.370505317E0
1.190994417E0,-2.774566392E0,1.476887391E0,3.943771541E-1,3.167798663E0
1.201018417E0,-2.510155885E0,1.213045818E0,1.960711741E-1,2.794782036E0
1.211043417E0,-2.217883980E0,9.343985099E-1,-4.091300447E-2,2.407028001E0
1.221067417E0,-1.731760504E0,6.113877922E-1,-1.060825253E-1,1.839576848E0
1.231092417E0,-1.063099235E0,8.892971814E-2,-1.419972932E-1,1.076221032E0
1.241116417E0,-4.016616154E-1,-4.317256594E-1,-1.698756115E-1,6.136585546E-1
1.251141417E0,1.705855000E-1,-7.658466715E-1,-1.507050399E-1,7.989571616E-1
1.261165417E0,7.051935035E-1,-1.069568594E0,-1.788662903E-1,1.293548609E0
1.271190417E0,1.157435873E0,-1.407493805E0,-2.515787192E-1,1.839562030E0
1.281215417E0,1.469408802E0,-1.603225256E0,-1.445138618E-1,2.179536121E0
1.291239417E0,1.649873757E0,-1.748759530E0,-1.290481225E-1,2.407674547E0
1.301264417E0,1.949296807E0,-1.837221470E0,-4.581052266E-2,2.679037024E0
1.311288417E0,2.348782089E0,-2.060967516E0,1.532789111E-2,3.124835891E0
1.321313417E0,2.549559687E0,-2.540930951E0,-1.473426716E-1,3.602540014E0
1.331337417E0,2.610485335E0,-2.779954602E0,-1.937380620E-1,3.818417959E0
1.341362417E0,2.439415101E0,-2.987689217E0,-4.114872035E-1,3.878963084E0
1.351386417E0,2.159764411E0,-2.611126775E0,-1.819126531E-1,3.393472787E0
1.361411417E0,1.897281146E0,-1.976771119E0,-2.018232264E-2,2.740019549E0
1.371435417E0,2.038349901E0,-2.026925027E0,-1.210712779E-1,2.877143312E0
1.381460417E0,2.442628146E0,-2.509348969E0,-1.693037903E-1,3.505984638E0
1.391485417E0,2.469114279E0,-2.499275971E0,-1.404150367E-1,3.516052059E0
1.401509417E0,2.085526991E0,-1.720146765E0,-1.432521057E-1,2.707184680E0
1.411534417E0,1.489928436E0,-7.388050532E-1,-1.905198276E-1,1.673922774E0
1.421558417E0,9.567483222E-1,1.656223834E-1,-2.144649066E-2,9.712147435E-1
1.431583417E0,5.960218942E-1,5.840292549E-1,4.605617881E-2,8.357352694E-1
1.441607417E0,2.185350072E-1,7.802372539E-1,3.938684464E-2,8.112207131E-1
1.451632417E0,-2.013330835E-1,9.634626800E-1,3.365399321E-1,1.040218473E0
1.461656417E0,-2.511852747E-1,7.654379511E-1,6.236137354E-1,1.018765621E0
1.471681417E0,6.714825511E-2,-2.524640608E-1,3.380743146E-1,4.272484433E-1
1.481706417E0,5.251203114E-1,-1.621310109E0,5.266048463E-1,1.783734979E0
1.491730417E0,1.486236504E0,-2.353024828E0,6.514243356E-1,2.858317416E0
1.501755417E0,1.651720893E0,-2.305317396E0,6.002201220E-1,2.898781537E0
1.511779417E0,1.442110491E0,-1.388784469E0,8.521813222E-1,2.175917732E0
1.521804417E0,1.025154313E0,-2.215064453E0,-1.933900796E-2,2.440865808E0
1.531828417E0,3.720232487E-1,-2.542011516E0,4.465634807E-1,2.607612469E0
1.541853417E0,2.814183033E-1,-1.992743374E0,1.369903225E0,2.434513762E0
1.551877417E0,-3.131944120E-1,-1.557118791E0,1.227917626E0,2.007608369E0
1.561902417E0,-4.546180934E-1,-5.479098344E-1,1.179818357E0,1.377989170E0
1.571927417E0,-8.912577528E-1,4.160375798E-1,1.018885514E0,1.416176309E0
1.581951417E0,-1.518531845E0,1.050920654E0,7.492703267E-1,1.992932314E0
1.591976417E0,-1.622362608E0,1.415155411E0,6.273839470E-1,2.242395123E0
1.602000417E0,-1.675051868E0,1.658011327E0,4.348936808E-1,2.396650337E0
1.612025417E0,-1.815612500E0,1.953895642E0,3.043627044E-1,2.684547185E0
1.622049417E0,-2.175441381E0,2.294109453E0,2.533750570E-1,3.171700223E0
1.632074417E0,-2.472803287E0,2.625575829E0,2.162018951E-1,3.613190805E0
1.642098417E0,-2.559290038E0,2.915619360E0,9.808821201E-2,3.880776089E0
1.652123417E0,-2.641801268E0,3.089872819E0,-4.143337011E-3,4.065273071E0
1.662147417E0,-2.568291242E0,3.160306624E0,-2.219961204E-2,4.072364262E0
1.672172417E0,-2.401535668E0,3.141449354E0,-1.239341477E-1,3.956189743E0
1.682197417E0,-2.309585863E0,3.013910471E0,-2.244078775E-1,3.803708990E0
1.692221417E0,-2.174102368E0,2.902999899E0,-3.605488189E-1,3.644739356E0
1.702246417E0,-1.983425835E0,2.750065974E0,-5.637112038E-1,3.437238896E0
1.712270417E0,-1.788953875E0,2.577124046E0,-6.378294861E-1,3.201367016E0
1.722295417E0,-1.582355958E0,2.365455424E0,-5.157828927E-1,2.892276220E0
1.732319417E0,-1.391502839E0,2.108825222E0,-3.828768504E-1,2.555390117E0
1.742344417E0,-1.288902331E0,1.900436304E0,-3.766447417E-1,2.326969837E0
1.752368417E0,-1.128773407E0,1.828568176E0,-4.084315217E-1,2.187374519E0
1.762393417E0,-9.979010260E-1,1.842870466E0,-3.335180911E-1,2.122077361E0
1.772418417E0,-7.563186336E-1,1.776954219E0,-1.944349770E-1,1.940976335E0
1.782442417E0,-3.364411873E-1,1.627284794E0,-1.774208951E-1,1.671145310E0
1.792467416E0,2.158078659E-1,1.298143271E0,-2.827747111E-1,1.345997966E0
1.802491417E0,7.375502408E-1,9.865591818E-1,-4.662324178E-1,1.317061898E0
1.812516417E0,1.352683759E0,7.620506591E-1,-4.992284019E-1,1.630859760E0
1.822540417E0,2.129729018E0,3.878528309E-1,-6.463512182E-1,2.259191317E0
1.832565417E0,2.697666736E0,-2.477231383E-2,-7.833631754E-1,2.809212941E0
1.842589417E0,2.978328409E0,-3.614421272E-1,-6.924808527E-1,3.079059963E0
1.852614417E0,3.270026118E0,-7.871656197E-1,-5.957165234E-1,3.415783761E0
1.862639417E0,3.571443068E0,-1.189961595E0,-4.805754916E-1,3.795018707E0
1.872663417E0,3.816781127E0,-1.560955149E0,-3.773792251E-1,4.140871192E0
1.882688417E0,4.022055818E0,-2.029559197E0,-3.305549414E-1,4.517223717E0
1.892712417E0,4.247412187E0,-2.571649298E0,-3.035359081E-1,4.974537612E0
1.902737417E0,4.472806563E0,-3.023508090E0,-1.962139924E-1,5.402416094E0
1.912761417E0,4.065031099E0,-2.977771754E0,-1.410582304E-2,5.039027826E0
1.922786417E0,3.265353023E0,-2.558677835E0,1.972488765E-1,4.153103628E0
1.932810417E0,2.711367931E0,-2.301762289E0,3.829527180E-1,3.577188628E0
1.942835417E0,2.313357317E0,-2.129336085E0,5.001883686E-1,3.183690099E0
1.952859417E0,1.754367594E0,-1.540344883E0,6.507904243E-1,2.423632850E0
1.962884417E0,1.182044465E0,-8.009176862E-1,7.822017722E-1,1.628047257E0
1.972909417E0,8.093745142E-1,-5.540640289E-1,7.921083442E-1,1.260757582E0
1.982933416E0,8.900643361E-1,-9.645678037E-1,7.475852323E-1,1.510459946E0
1.992958417E0,1.294933149E0,-1.667751619E0,7.110131641E-1,2.227955799E0
2.002982417E0,1.650539171E0,-2.339118395E0,5.009624668E-1,2.906323763E0
2.013007417E0,1.948512111E0,-2.992497382E0,1.735756930E-1,3.575173919E0
2.023031417E0,2.194682813E0,-3.408484091E0,1.485317029E-2,4.053963131E0
2.033056417E0,2.186678560E0,-3.465318443E0,-2.323449612E-2,4.097625517E0
2.043080417E0,1.793638664E0,-3.098196915E0,-2.029334664E-2,3.579996592E0
2.053105417E0,1.123844789E0,-2.530032910E0,9.312626481E-2,2.769975837E0
2.063130417E0,3.521918321E-1,-2.122943324E0,2.923972546E-1,2.171732856E0
2.073154417E0,-2.714756978E-1,-1.846378795E0,5.009697758E-1,1.932300294E0
2.083179417E0,-8.328955239E-1,-1.527207359E0,6.574960113E-1,1.859671551E0
2.093203417E0,-1.387296352E0,-1.110364618E0,7.923270301E-1,1.945580344E0
2.103228417E0,-1.814240159E0,-6.483924812E-1,8.621615691E-1,2.110735117E0
2.113252417E0,-2.115002221E0,-2.785788953E-1,7.777685595E-1,2.270630865E0
2.123277417E0,-2.334653462E0,-1.213297248E-3,7.441354481E-1,2.450376670E0
2.133301417E0,-2.524369297E0,2.685316247E-1,6.094366495E-1,2.610739859E0
2.143326417E0,-2.798420693E0,6.590928859E-1,4.131749292E-1,2.904526697E0
2.153351417E0,-3.270624288E0,1.172315868E0,3.075598888E-1,3.487965139E0
2.163375417E0,-3.828597180E0,1.631985371E0,3.286545233E-1,4.174870826E0
2.173400417E0,-4.265850213E0,1.917858083E0,3.929293835E-1,4.693618131E0
2.183420458E0,-4.560745763E0,2.002046586E0,4.252622203E-1,4.998943929E0
2.193445458E0,-4.752385917E0,2.006769967E0,4.809288096E-1,5.181080015E0
2.203469458E0,-4.684300354E0,1.904757981E0,5.345383485E-1,5.084929106E0
2.213494458E0,-4.435483786E0,1.441793864E0,5.438670695E-1,4.695538026E0
2.223518458E0,-4.183153042E0,1.167716448E0,5.517245579E-1,4.377982533E0
2.233543458E0,-3.933615512E0,1.088197823E0,5.128184275E-1,4.113452107E0
2.243568458E0,-3.636382245E0,9.065847668E-1,3.670998931E-1,3.765625327E0
2.253592458E0,-3.320811524E0,7.708852172E-1,2.633072106E-1,3.419266571E0
2.263617458E0,-3.068844477E0,6.643238050E-1,1.217144716E-1,3.142283716E0
2.273641458E0,-2.902609890E0,5.337999183E-1,-3.490319967E-2,2.951491955E0
2.283666458E0,-2.754125696E0,3.755198836E-1,-4.160418190E-2,2.779919862E0
2.293690458E0,-2.593752943E0,2.573611039E-1,5.078884207E-2,2.606984575E0
2.303715458E0,-2.379434363E0,2.871950600E-1,1.426464073E-1,2.400944999E0
2.313739458E0,-2.045969408E0,2.731725597E-1,2.131744261E-1,2.075104191E0
2.323764458E0,-1.491505430E0,1.094815117E-1,2.234526618E-1,1.512119618E0
2.333789458E0,-8.676987362E-1,-6.826390386E-2,1.734496124E-1,8.874941270E-1
2.343813458E0,-1.564328992E-1,-1.354688770E-1,7.273453876E-2,2.193476276E-1
2.353838458E0,5.446032339E-1,-3.214147201E-1,-1.792499042E-1,6.572903718E-1
2.363862458E0,1.214763730E0,-6.273746645E-1,-3.794116442E-1,1.418873879E0
2.373887458E0,1.655306990E0,-8.911527953E-1,-6.002236303E-1,1.973439369E0
2.383911458E0,1.995561147E0,-1.053997459E0,-7.159820549E-1,2.367658176E0
2.393936458E0,2.365188791E0,-1.338831121E0,-6.464987142E-1,2.793662001E0
2.403960458E0,2.784895499E0,-1.717597378E0,-6.994486141E-1,3.345894807E0
2.413985458E0,3.087981244E0,-2.030508201E0,-7.006883700E-1,3.761589546E0
2.424009458E0,3.113114331E0,-2.086351449E0,-6.099523008E-1,3.796891494E0
2.434034458E0,2.854906551E0,-1.937649738E0,-4.861294694E-1,3.484436796E0
2.444059458E0,2.769576378E0,-2.033943147E0,-3.606280486E-1,3.455073173E0
2.454083458E0,2.899620793E0,-2.497716519E0,-1.492874555E-1,3.829970665E0
2.464108458E0,2.937728852E0,-2.765695874E0,9.557157040E-2,4.035896232E0
2.474132458E0,2.753471392E0,-2.383794047E0,2.946844661E-1,3.653890762E0
2.484157458E0,2.423645745E0,-1.855954488E0,4.324999769E-1,3.083128604E0
2.494181458E0,2.114471878E0,-1.411508795E0,5.065010226E-1,2.592275388E0
2.504206458E0,1.822971806E0,-9.076314184E-1,5.447618397E-1,2.108029046E0
2.514230458E0,1.430877405E0,-4.197622561E-1,4.422741826E-1,1.555383217E0
2.524255458E0,9.563045186E-1,3.901203811E-2,3.375411947E-1,1.014876509E0
2.534280458E0,5.096836621E-1,3.437256485E-1,2.394892354E-1,6.597574181E-1
2.544304458E0,1.888147795E-1,2.993499595E-1,1.467674518E-1,3.831476270E-1
2.554329458E0,1.481193280E-1,-1.077700317E-1,1.251596510E-1,2.218527740E-1
2.564353458E0,3.490425217E-1,-7.427788210E-1,1.943241723E-1,8.433937057E-1
2.574378458E0,7.479506832E-1,-1.328416645E0,2.948515503E-1,1.552758334E0
2.584402458E0,1.293932691E0,-1.874595703E0,3.092884719E-1,2.298701855E0
2.594427458E0,1.545627843E0,-2.201535165E0,3.195386410E-1,2.708842457E0
2.604451458E0,1.325849717E0,-2.175545461E0,3.914395130E-1,2.577615258E0
2.614476458E0,7.512894434E-1,-1.854707277E0,4.437078468E-1,2.049695480E0
2.624501458E0,2.535516429E-1,-1.459318262E0,3.945290355E-1,1.532824642E0
2.634525458E0,-2.525038218E-1,-1.150095279E0,4.037641279E-1,1.244790264E0
2.644550458E0,-8.000803649E-1,-7.772352934E-1,4.976706306E-1,1.221433317E0
2.654574458E0,-1.272232504E0,-2.840337628E-1,5.934255843E-1,1.432272546E0
2.664599458E0,-1.733109457E0,2.211645001E-1,6.474328069E-1,1.863263633E0
2.674623458E0,-2.242348146E0,6.520890909E-1,6.524032326E-1,2.424659846E0
2.684648458E0,-2.773743104E0,1.067599252E0,5.916739777E-1,3.030428529E0
2.694672458E0,-3.239404249E0,1.477831131E0,5.048848522E-1,3.596197082E0
2.704697458E0,-3.426681211E0,1.723027395E0,3.845164096E-1,3.854714049E0
2.714721458E0,-3.398019329E0,1.876299290E0,3.534490565E-1,3.897686573E0
2.724746458E0,-3.467594179E0,2.078460924E0,1.588279188E-1,4.045915905E0
2.734771458E0,-3.566227351E0,2.300157813E0,-6.833516680E-2,4.244216439E0
2.744795458E0,-3.617878146E0,2.505293925E0,-2.363058650E-1,4.406969525E0
2.754820458E0,-3.525260589E0,2.502353361E0,-4.694156420E-1,4.348515334E0
2.764844458E0,-3.307530743E0,2.311527724E0,-6.218630060E-1,4.082846266E0
2.774869458E0,-2.897498254E0,2.113014752E0,-6.023368140E-1,3.636363171E0
2.784893458E0,-2.496871011E0,1.955266814E0,-6.501027918E-1,3.237293129E0
2.794918458E0,-2.101356574E0,1.638023790E0,-5.758115049E-1,2.725872388E0
2.804942458E0,-1.656353642E0,1.460418123E0,-3.867031952E-1,2.241844741E0
2.814967458E0,-1.048661875E0,1.437330977E0,-3.575829649E-1,1.814794104E0
2.824992458E0,-6.284160537E-1,1.284095335E0,-4.877701250E-1,1.510538732E0
2.835016458E0,-5.232632357E-1,1.195536330E0,-3.081904379E-1,1.340929855E0
2.845041458E0,-4.972396177E-1,1.215522698E0,-6.781600714E-3,1.313312094E0
2.855065458E0,-2.841273183E-1,1.208574452E0,3.454184175E-2,1.242003896E0
2.865090458E0,1.089622790E-1,1.037560936E0,3.527749456E-2,1.043863006E0
2.875114458E0,7.456585747E-1,8.990877593E-1,-1.707644248E-1,1.180477021E0
2.885139458E0,8.919494784E-1,8.074934649E-1,-2.556975710E-1,1.230040981E0
2.895163458E0,7.168692237E-1,8.506868470E-1,3.586448193E-2,1.113039018E0
2.905188458E0,9.377086186E-1,9.653291112E-1,2.343914866E-2,1.345996709E0
2.915213458E0,1.196585906E0,7.899611735E-1,-3.320984237E-1,1.471783220E0
2.925237458E0,1.649234657E0,3.228136665E-1,-5.164681133E-1,1.758102081E0
2.935262458E0,2.100690576E0,-3.233983880E-1,-5.286362056E-1,2.190192606E0
2.945286458E0,2.096591093E0,-5.637926263E-1,-3.733540750E-1,2.202941125E0
2.955311458E0,2.259467624E0,-7.651298028E-1,-2.022726580E-1,2.394061776E0
2.965335458E0,2.411981719E0,-1.165301548E0,-3.893313725E-2,2.679010881E0
2.975360458E0,2.573927958E0,-1.551389689E0,5.745713471E-2,3.005863673E0
2.985384458E0,2.770276290E0,-2.060019098E0,1.647277776E-1,3.456189325E0
2.995409458E0,3.006616069E0,-2.461801751E0,1.178026843E-1,3.887683824E0
3.005434458E0,3.049249873E0,-2.647307591E0,-2.707377791E-2,4.038179696E0
3.015458458E0,2.782228584E0,-2.624853698E0,6.010120908E-2,3.825475785E0
3.025483458E0,2.295672414E0,-2.387758459E0,1.549864808E-2,3.312362072E0
3.035507458E0,1.960353307E0,-2.278248881E0,-8.466766438E-2,3.006754340E0
3.045532458E0,1.710046869E0,-2.185172317E0,6.932224989E-2,2.775615954E0
3.055556458E0,1.240563984E0,-1.739273592E0,1.111929735E-1,2.139260504E0
3.065581458E0,9.434587705E-1,-1.318424338E0,3.518702352E-1,1.658966500E0
3.075605458E0,8.450787824E-1,-1.253703847E0,4.152025974E-1,1.567904551E0
3.085630458E0,8.927979094E-1,-1.327792747E0,3.110344505E-1,1.629988992E0
3.095654458E0,9.458362484E-1,-1.511232766E0,1.376621858E-1,1.788122356E0
3.105679458E0,1.046225340E0,-1.876916463E0,-1.483790358E-2,2.148865523E0
3.115704458E0,1.132915574E0,-2.290902840E0,-2.174041557E-1,2.564955767E0
3.125728458E0,1.203244130E0,-2.579310320E0,-2.336535863E-1,2.855736711E0
3.135753458E0,1.236532913E0,-2.723247719E0,-2.131029622E-1,2.998417026E0
3.145777458E0,1.146102800E0,-2.670325740E0,-2.249774512E-1,2.914585054E0
3.155802458E0,9.225029343E-1,-2.396691835E0,-3.058046826E-1,2.586244366E0
3.165826458E0,5.316124749E-1,-2.061138255E0,-1.491086769E-1,2.133807894E0
3.175851458E0,1.354928505E-1,-1.619498057E0,4.221810300E-2,1.625704351E0
3.185875667E0,-3.706684488E-1,-1.221568134E0,1.209882839E-1,1.282287788E0
3.195900667E0,-9.430646682E-1,-7.441482389E-1,2.637807620E-1,1.229921892E0
3.205925667E0,-1.435342923E0,-2.399773318E-1,3.995062951E-1,1.509106924E0
3.215949667E0,-1.822547883E0,2.065528929E-1,4.546596086E-1,1.889724912E0
3.225974667E0,-2.172843463E0,6.714650095E-1,4.652255638E-1,2.321324794E0
3.235998667E0,-2.496074036E0,1.160906780E0,3.241076553E-1,2.771847023E0
3.246023667E0,-2.727896841E0,1.589656207E0,2.746156526E-1,3.169202074E0
3.256047667E0,-2.927040142E0,1.961701090E0,1.860631164E-1,3.528520177E0
3.266072667E0,-3.085867476E0,2.266143390E0,-3.002194405E-2,3.828692369E0
3.276096667E0,-3.158211567E0,2.412322027E0,-2.367607419E-1,3.981162332E0
3.286121667E0,-3.290919389E0,2.475409976E0,-2.874175100E-1,4.128003609E0
3.296146667E0,-3.421646758E0,2.482130181E0,-3.132879309E-1,4.238724584E0
3.306170667E0,-3.490843293E0,2.370733121E0,-2.380904718E-1,4.226470099E0
3.316195667E0,-3.548747685E0,2.239371328E0,-7.942389965E-2,4.196987281E0
3.326219667E0,-3.607839646E0,2.141839187E0,5.092921179E-2,4.196019042E0
3.336244667E0,-3.592601802E0,1.991040080E0,1.744750313E-1,4.111139726E0
3.346268667E0,-3.476732792E0,1.797507182E0,1.908648499E-1,3.918562539E0
3.356293667E0,-3.348076506E0,1.582175864E0,2.148372281E-1,3.709319586E0
3.366317667E0,-3.127737633E0,1.333839937E0,2.460016815E-1,3.409162435E0
3.376342667E0,-2.811928931E0,1.008982669E0,2.890441323E-1,3.001422471E0
3.386366667E0,-2.330242322E0,6.313975489E-1,3.229288932E-1,2.435769943E0
3.396391667E0,-1.855564186E0,3.794427806E-1,3.771232267E-1,1.931144013E0
3.406416667E0,-1.430935877E0,1.820828801E-1,4.556863797E-1,1.512739811E0
3.416440667E0,-9.701179808E-1,-6.329435527E-2,5.274293038E-1,1.106036501E0
3.426465667E0,-5.156601012E-1,-3.583267307E-1,6.100458562E-1,8.754766317E-1
3.436489667E0,-1.014415902E-1,-6.141628808E-1,6.044874930E-1,8.676932462E-1
3.446514667E0,2.674604148E-1,-7.818434840E-1,5.047200338E-1,9.682750743E-1
3.456538667E0,6.040559685E-1,-9.668973345E-1,4.814364211E-1,1.237560138E0
3.466563667E0,8.718941134E-1,-1.152807217E0,4.241981001E-1,1.506355819E0
3.476587667E0,1.112538612E0,-1.312526252E0,3.383889679E-1,1.753560498E0
3.486612667E0,1.284050896E0,-1.458545845E0,2.938400551E-1,1.965320499E0
3.496637667E0,1.414339725E0,-1.584211864E0,3.167506886E-1,2.147187716E0
3.506661667E0,1.554904450E0,-1.737411253E0,3.311642213E-1,2.354993727E0
3.516686667E0,1.645171427E0,-1.849574298E0,3.363259240E-1,2.498125144E0
3.526710667E0,1.675368202E0,-1.796093325E0,3.757525297E-1,2.484753470E0
3.536735667E0,1.774024179E0,-1.707281136E0,3.880154566E-1,2.492494064E0
3.546759667E0,2.204130744E0,-1.976336086E0,3.053369967E-1,2.976126232E0
3.556784667E0,2.773311580E0,-2.506434132E0,1.663277037E-1,3.741808932E0
3.566808667E0,2.939181885E0,-2.566812481E0,1.333492613E-1,3.904497214E0
3.576833667E0,2.671074768E0,-2.048291337E0,1.918845677E-1,3.371491882E0
3.586857667E0,2.366986810E0,-1.495378625E0,2.201769054E-1,2.808426902E0
3.596882667E0,1.949825395E0,-1.079393671E0,2.812907609E-1,2.246337967E0
3.606907667E0,1.212637682E0,-4.266052526E-1,3.884656191E-1,1.342902724E0
3.616931667E0,3.612947774E-1,4.137811393E-1,5.295307931E-1,7.629886029E-1
3.626956667E0,-2.517676574E-1,8.441519988E-1,6.557324910E-1,1.098164218E0
3.636980667E0,-2.538872731E-1,5.009467524E-1,7.054852065E-1,9.017293234E-1
3.647005667E0,1.937457365E-1,-3.313909471E-1,7.283245039E-1,8.232945726E-1
3.657029667E0,8.144914126E-1,-1.247177770E0,6.487252609E-1,1.624713241E0
3.667054667E0,1.436779000E0,-2.022453661E0,5.859624906E-1,2.549118425E0
3.677078667E0,1.988457364E0,-2.361961713E0,5.740118051E-1,3.140432355E0
3.687103667E0,2.384431978E0,-2.344373873E0,4.372944745E-1,3.372362847E0
3.697128667E0,2.457768341E0,-2.243715225E0,3.013456873E-1,3.341510505E0
3.707152667E0,2.178994734E0,-2.075345820E0,3.374615995E-1,3.028028839E0
3.717177667E0,1.824243575E0,-1.835160912E0,4.054484184E-1,2.619173269E0
3.727201667E0,1.329101354E0,-1.566842126E0,3.648662567E-1,2.086775513E0
3.737226667E0,6.886517304E-1,-1.175834722E0,3.966974024E-1,1.419224199E0
3.747250667E0,6.107358277E-2,-5.578407454E-1,4.239092477E-1,7.032889378E-1
3.757275667E0,-5.309090549E-1,8.123887539E-2,4.662137067E-1,7.112098142E-1
3.767299667E0,-1.128264699E0,6.217069584E-1,3.973452008E-1,1.348103847E0
3.777324667E0,-1.584441075E0,1.072510913E0,3.921529464E-1,1.953078880E0
3.787348667E0,-1.929091753E0,1.501286067E0,2.777649629E-1,2.460164268E0
3.797373667E0,-2.256576176E0,1.908256955E0,7.041334033E-2,2.956101940E0
3.807398667E0,-2.593807322E0,2.286242024E0,-1.079676310E-1,3.459247899E0
3.817422667E0,-2.929339267E0,2.615363667E0,-2.834262371E-1,3.937192665E0
3.827447667E0,-3.164832369E0,2.825851151E0,-4.621346891E-1,4.267923046E0
3.837471667E0,-3.243035955E0,2.870006985E0,-5.832843927E-1,4.369718868E0
3.847496667E0,-3.217188923E0,2.836787784E0,-5.945952467E-1,4.330267082E0
3.857520667E0,-3.091811755E0,2.662600983E0,-5.652795732E-1,4.119257812E0
3.867545667E0,-2.827537488E0,2.374081821E0,-4.408355117E-1,3.718274962E0
3.877569667E0,-2.541280029E0,2.072582425E0,-3.747492206E-1,3.300627073E0
3.887594667E0,-2.326263292E0,1.828823115E0,-4.241499337E-1,2.989313977E0
3.897619667E0,-2.162419631E0,1.668722257E0,-4.151582316E-1,2.762797313E0
3.907643667E0,-2.014464610E0,1.618176586E0,-3.341006199E-1,2.605414814E0
3.917668667E0,-1.873875911E0,1.653749292E0,-2.531704044E-1,2.512049543E0
3.927692667E0,-1.628250754E0,1.668631040E0,-1.700090376E-1,2.337612701E0
3.937717667E0,-1.304651806E0,1.639883205E0,-3.633218609E-2,2.095865761E0
3.947741667E0,-9.303282630E-1,1.598548068E0,6.767793976E-2,1.850796290E0
3.957766667E0,-5.727020288E-1,1.516054965E0,1.144018706E-1,1.624653211E0
3.967790667E0,-4.783648056E-1,1.505750417E0,1.564001548E-1,1.587632896E0
3.977815667E0,-3.064677751E-1,1.605696874E0,2.687427092E-1,1.656625362E0
3.987839667E0,1.637167758E-1,1.583003830E0,4.959467983E-1,1.666933572E0
3.997864667E0,6.173116064E-1,1.327178205E0,3.920944011E-1,1.515326244E0
4.007889667E0,9.864153403E-1,1.203828852E0,2.991025492E-1,1.584828528E0
4.017913667E0,1.349560177E0,1.061272565E0,1.692909995E-1,1.725187401E0
4.027938667E0,1.729721580E0,7.574588406E-1,-6.951513492E-2,1.889580111E0
4.037962667E0,2.146204133E0,3.770875221E-1,-1.245830425E-1,2.182637880E0
4.047987667E0,2.539218301E0,-1.676981449E-2,-1.814086231E-1,2.545745450E0
4.058011667E0,2.828874162E0,-3.348238474E-1,-2.402339514E-1,2.858731954E0
4.068036667E0,2.890775710E0,-5.062191868E-1,-3.167728349E-1,2.951810817E0
4.078060667E0,2.798296732E0,-5.054818529E-1,-2.587895056E-1,2.855336848E0
4.088085667E0,2.782961240E0,-7.635633337E-1,-1.732155776E-1,2.891004300E0
4.098109667E0,2.910374408E0,-1.508768749E0,-1.125085422E-1,3.280140318E0
4.108134667E0,2.993853936E0,-2.230827962E0,-1.998220168E-2,3.733651574E0
4.118159667E0,2.764724359E0,-2.413365170E0,8.215374537E-3,3.669890968E0
4.128183667E0,2.219834611E0,-1.998958964E0,3.341559492E-2,2.987410123E0
4.138208667E0,1.725214546E0,-1.512658317E0,1.245293212E-1,2.297826792E0
4.148232667E0,1.388304412E0,-1.299850658E0,2.732661517E-1,1.921373275E0
4.158257667E0,1.054997917E0,-1.127877613E0,2.505812939E-1,1.564582852E0
4.168281667E0,8.889194512E-1,-9.633001274E-1,1.284166050E-1,1.317048120E0
4.178306667E0,1.016855360E0,-1.220263036E0,9.960264087E-2,1.591526747E0
4.188330917E0,1.286794410E0,-1.864840794E0,4.093752623E-2,2.266086256E0
4.198355917E0,1.711732036E0,-2.501055863E0,-2.916357279E-2,3.030867452E0
4.208380917E0,2.336335121E0,-3.240522822E0,-3.208367229E-2,3.995056860E0
4.218404917E0,2.932357600E0,-3.854456491E0,8.961208820E-2,4.843922611E0
4.228429917E0,3.112223216E0,-3.994289730E0,2.085761026E-1,5.067917500E0
4.238453917E0,2.877815357E0,-3.747823451E0,3.337274214E-1,4.737021832E0
4.248478917E0,2.329473998E0,-3.367065339E0,4.514401317E-1,4.119147521E0
4.258502917E0,1.684502138E0,-3.104922967E0,5.527583456E-1,3.575421076E0
4.268527917E0,9.217696935E-1,-2.775919730E0,6.212129418E-1,2.990199866E0
4.278551917E0,1.212197971E-1,-2.170709814E0,6.553536645E-1,2.270718776E0
4.288576917E0,-5.461679488E-1,-1.596001898E0,4.847494534E-1,1.755136325E0
4.298600917E0,-1.134951575E0,-1.114773711E0,4.100676457E-1,1.642860608E0
4.308625917E0,-1.797588458E0,-5.659169197E-1,4.122684646E-1,1.929132321E0
4.318650917E0,-2.534681447E0,1.157640526E-1,2.871708671E-1,2.553522755E0
4.328674917E0,-3.177699167E0,7.725461188E-1,7.543259025E-2,3.271129710E0
4.338699917E0,-3.641808461E0,1.284087734E0,-1.023847461E-1,3.862917655E0
4.348723917E0,-4.042104751E0,1.696096289E0,-1.665193097E-1,4.386693758E0
4.358748917E0,-4.393770334E0,2.076158290E0,-8.650951903E-2,4.860363658E0
4.368772916E0,-4.603985338E0,2.310604448E0,1.015431125E-2,5.151279164E0
4.378797917E0,-4.584190174E0,2.300625882E0,1.087255033E-1,5.130253428E0
4.388821917E0,-4.186328080E0,2.199503258E0,2.726837325E-1,4.736825286E0
4.398846917E0,-3.716233576E0,2.045579691E0,3.198929822E-1,4.254070966E0
4.408871917E0,-3.382825924E0,1.788402482E0,2.137870681E-1,3.832440421E0
4.418895917E0,-3.244061556E0,1.531162123E0,2.630136438E-1,3.596883235E0
4.428920917E0,-3.236540283E0,1.286814875E0,3.520679442E-1,3.500719549E0
4.438944917E0,-3.241102281E0,1.096214356E0,3.038751197E-1,3.434933769E0
4.448969917E0,-3.129212885E0,9.063485393E-1,1.542331767E-1,3.261476480E0
4.458993917E0,-2.889356006E0,7.029133818E-1,4.471248865E-2,2.973964452E0
4.469018917E0,-2.719691443E0,5.511684877E-1,-6.521743141E-2,2.775745226E0
4.479042917E0,-2.619507004E0,6.006850487E-1,-1.649609171E-2,2.687547505E0
4.489067917E0,-2.379413897E0,5.899937072E-1,9.361867346E-2,2.453256514E0
4.499091917E0,-2.094333483E0,5.308573070E-1,1.109229235E-1,2.163410759E0
4.509116917E0,-1.649241673E0,3.522836334E-1,8.510037661E-2,1.688592292E0
4.519141917E0,-8.172320026E-1,-1.961214602E-2,2.464484453E-2,8.178387070E-1
4.529165917E0,-2.589439452E-2,-3.613947648E-1,-1.630203724E-2,3.626878163E-1
4.539190917E0,6.580403870E-1,-7.094023293E-1,-4.847224832E-2,9.688231906E-1
4.549214917E0,1.091764625E0,-9.477365935E-1,-1.131354368E-1,1.450156638E0
4.559239917E0,1.391720356E0,-1.016020670E0,-8.808720745E-2,1.725381960E0
4.569263917E0,1.748169546E0,-1.206793975E0,-1.866758680E-1,2.132439058E0
4.579288917E0,2.213369345E0,-1.559838038E0,-3.532383375E-1,2.730728087E0
4.589312917E0,2.703495240E0,-1.956712246E0,-3.978726196E-1,3.360939147E0
4.599337917E0,3.087422251E0,-2.298052230E0,-4.288580386E-1,3.872614030E0
4.609362917E0,3.146852181E0,-2.398363846E0,-4.626235163E-1,3.983572305E0
4.619386917E0,2.866571161E0,-2.121649336E0,-4.276934195E-1,3.591872462E0
4.629411917E0,2.659580896E0,-2.035095634E0,-3.997693833E-1,3.372654791E0
4.639435917E0,2.746541857E0,-2.457548778E0,-3.526478418E-1,3.702350425E0
4.649460917E0,2.874445606E0,-2.730355302E0,-2.155926152E-1,3.970359908E0
4.659484917E0,2.614834494E0,-2.444574099E0,-2.202893912E-1,3.586339272E0
4.669509917E0,2.103300188E0,-1.886324633E0,-2.157238121E-1,2.833483557E0
4.679533917E0,1.710929798E0,-1.436258890E0,-3.760797545E-2,2.234174284E0
4.689558917E0,1.410825548E0,-1.085209019E0,1.474341074E-1,1.786013482E0
4.699583917E0,1.061943240E0,-5.713326108E-1,1.037496324E-1,1.210333997E0
4.709607917E0,6.191300905E-1,-6.106247306E-3,8.886598349E-2,6.255050105E-1
4.719632917E0,3.407768977E-1,2.998925811E-1,3.785143889E-2,4.555185898E-1
4.729656917E0,3.642885518E-1,1.773507285E-1,-1.312430942E-1,4.258922160E-1
4.739681917E0,5.679213452E-1,-2.407655364E-1,-2.294774866E-1,6.581509058E-1
4.749705917E0,8.535508132E-1,-8.446595371E-1,-2.887014489E-1,1.235049493E0
4.759730917E0,1.257005770E0,-1.393775067E0,-2.412911280E-1,1.892324986E0
4.769754917E0,1.606695578E0,-1.755697251E0,-1.813852342E-1,2.386806260E0
4.779779917E0,1.765267389E0,-1.878750150E0,-1.798814034E-1,2.584226848E0
4.789803917E0,1.591964688E0,-1.745825397E0,-1.110292697E-1,2.365287590E0
4.799828917E0,1.056872535E0,-1.367715197E0,4.272048846E-3,1.728479871E0
4.809853917E0,4.599834985E-1,-1.050172795E0,7.812369816E-2,1.149152310E0
4.819877917E0,-9.009155989E-2,-8.426188588E-1,1.944550037E-1,8.694456733E-1
4.829902917E0,-6.033145416E-1,-4.999977493E-1,2.501697595E-1,8.225394179E-1
4.839926917E0,-1.084673706E0,-7.933385253E-2,2.407789850E-1,1.113905485E0
4.849951917E0,-1.555316679E0,3.681044447E-1,2.753980100E-1,1.621836896E0
4.859975917E0,-2.073848348E0,8.445168650E-1,2.880654180E-1,2.257661930E0
4.870000917E0,-2.584986212E0,1.246215903E0,2.375396276E-1,2.879519555E0
4.880024917E0,-3.040110090E0,1.594397714E0,1.550938869E-1,3.436339265E0
4.890049917E0,-3.372526054E0,1.887475365E0,7.395558357E-3,3.864783297E0
4.900074917E0,-3.652194285E0,2.134027891E0,-1.588606632E-1,4.232946356E0
4.910098917E0,-3.844615628E0,2.355304658E0,-3.167273728E-1,4.519828048E0
4.920123917E0,-3.923776402E0,2.471812184E0,-5.062519312E-1,4.664993864E0
4.930147917E0,-3.881060153E0,2.516204830E0,-6.797457632E-1,4.675036787E0
4.940172917E0,-3.713495910E0,2.482871608E0,-8.139265716E-1,4.540614469E0
4.950196917E0,-3.448824032E0,2.369803414E0,-8.451249754E-1,4.269027014E0
4.960221917E0,-2.993199633E0,2.107975037E0,-7.686235142E-1,3.740800035E0
4.970245917E0,-2.446078588E0,1.756933937E0,-6.948154266E-1,3.090774303E0
4.980270917E0,-1.962868779E0,1.547236412E0,-5.787397905E-1,2.565489057E0
4.990295917E0,-1.584735190E0,1.368339679E0,-4.539063410E-1,2.142374866E0
5.000319917E0,-1.276645982E0,1.186412335E0,-3.127348208E-1,1.770650237E0
5.010344917E0,-1.028211823E0,1.130495412E0,-1.638564511E-1,1.536908704E0
5.020368917E0,-8.747072089E-1,1.130542774E0,-5.717977569E-2,1.430562544E0
5.030393917E0,-6.433498424E-1,1.140250906E0,2.650440529E-2,1.309493655E0
5.040417917E0,-3.066613179E-1,1.145288283E0,1.310094249E-1,1.192849481E0
5.050442917E0,-1.384620667E-3,1.172900589E0,1.583893776E-1,1.183547593E0
5.060466917E0,2.552414882E-1,1.196181863E0,1.241867474E-1,1.229398884E0
5.070491917E0,6.206603068E-1,1.217933505E0,1.071631638E-1,1.371154690E0
5.080516917E0,1.161089798E0,1.012204485E0,-3.018332720E-3,1.540355981E0
5.090540917E0,1.605080577E0,7.782930547E-1,-9.515400611E-2,1.786358873E0
5.100565917E0,1.905352058E0,6.296088856E-1,-1.849263080E-1,2.015185240E0
5.110589917E0,2.106574629E0,4.815187937E-1,-3.995085975E-1,2.197526822E0
5.120614917E0,2.319961163E0,2.323350209E-1,-4.334963425E-1,2.371522388E0
5.130638917E0,2.815091105E0,-2.598274595E-1,-3.736791071E-1,2.851645896E0
5.140663917E0,3.264247899E0,-7.461286908E-1,-4.052515865E-1,3.372869879E0
5.150687917E0,3.391606688E0,-8.949871069E-1,-4.340518279E-1,3.534458776E0
5.160712917E0,3.239536981E0,-7.979022771E-1,-4.343357833E-1,3.364505234E0
5.170737917E0,3.034000919E0,-7.610835296E-1,-3.910489190E-1,3.152352926E0
5.180761917E0,3.089661149E0,-1.275776501E0,-2.512570493E-1,3.352124968E0
5.190790583E0,3.353066520E0,-1.833009136E0,-4.060672000E-2,3.821599991E0
5.200814583E0,3.317715424E0,-1.894995469E0,-5.768746018E-2,3.821200244E0
5.210839583E0,2.794729346E0,-1.434662892E0,-7.923211098E-2,3.142458824E0
5.220863583E0,2.321379113E0,-1.028429339E0,3.187551141E-2,2.539189622E0
5.230888583E0,2.153854045E0,-9.700419670E-1,1.873810422E-1,2.369637171E0
5.240912583E0,1.898858140E0,-7.298389328E-1,2.967040944E-1,2.055811378E0
5.250937583E0,1.387968197E0,-1.924827379E-1,2.805798125E-1,1.429066252E0
5.260962583E0,8.687933350E-1,1.187271291E-1,2.510876262E-1,9.121090867E-1
5.270986583E0,7.117961794E-1,-1.072724336E-1,3.253835908E-1,7.899592757E-1
5.281011583E0,9.144758767E-1,-8.035021555E-1,3.828452754E-1,1.276108282E0
5.291035583E0,1.275302877E0,-1.470744891E0,1.654949141E-1,1.953682811E0
5.301060583E0,1.573721375E0,-2.006032341E0,-2.004776359E-2,2.549738541E0
5.311084583E0,1.847262309E0,-2.518995706E0,-9.985801801E-3,3.123750490E0
5.321109583E0,2.026875910E0,-2.779524831E0,-1.275745511E-2,3.440079504E0
5.331133583E0,1.946670238E0,-2.738410719E0,-1.143949270E-2,3.359843619E0
5.341158583E0,1.599135713E0,-2.507814075E0,5.650515318E-2,2.974820885E0
5.351183583E0,1.142303279E0,-2.201968444E0,1.807515422E-1,2.487205848E0
5.361207583E0,6.874384332E-1,-1.901988739E0,3.063519271E-1,2.045478982E0
5.371232583E0,1.382164836E-1,-1.623391133E0,3.679489819E-1,1.670296088E0
5.381256583E0,-4.880021864E-1,-1.256374855E0,4.831731903E-1,1.431810128E0
5.391281583E0,-1.100657655E0,-8.326370770E-1,5.769213796E-1,1.495850946E0
5.401305583E0,-1.668551518E0,-3.478029120E-1,6.269771270E-1,1.816075811E0
5.411330583E0,-2.232617794E0,1.028577858E-1,5.752327768E-1,2.307824666E0
5.421354583E0,-2.757300734E0,5.066957349E-1,5.980170373E-1,2.866543612E0
5.431379583E0,-3.237510336E0,8.981668228E-1,5.768185417E-1,3.408943597E0
5.441404583E0,-3.629468497E0,1.261471873E0,5.005872218E-1,3.874911667E0
5.451428583E0,-3.937733706E0,1.567590569E0,3.758520055E-1,4.254920876E0
5.461453583E0,-4.210182965E0,1.873528587E0,2.259130970E-1,4.613760581E0
5.471477583E0,-4.428306913E0,2.144601996E0,1.467966878E-1,4.922475912E0
5.481502583E0,-4.530249610E0,2.245738946E0,-1.003393900E-1,5.057328636E0
5.491526583E0,-4.471555259E0,2.207457810E0,-1.519958858E-1,4.989065962E0
5.501551583E0,-4.238299887E0,2.031401070E0,-7.200487934E-2,4.700527730E0
5.511576583E0,-3.877150705E0,1.778402574E0,-6.548406444E-2,4.266063931E0
5.521600583E0,-3.558721865E0,1.489616194E0,-4.202905521E-3,3.857910754E0
5.531625583E0,-3.214851206E0,1.258631880E0,1.709422532E-1,3.456681030E0
5.541649583E0,-2.828911584E0,1.100799742E0,3.483033606E-1,3.055456767E0
5.551674583E0,-2.446642259E0,9.486768258E-1,4.082385635E-1,2.655692902E0
5.561698583E0,-2.093364599E0,8.269337028E-1,3.755234651E-1,2.281887939E0
5.571723583E0,-1.904715296E0,7.679651177E-1,4.126356697E-1,2.094750338E0
5.581747583E0,-1.668215888E0,7.412024117E-1,5.680279107E-1,1.911800453E0
5.591772583E0,-1.282722409E0,6.027327436E-1,6.613692069E-1,1.563992572E0
5.601797583E0,-7.185105371E-1,2.335173279E-1,6.597543521E-1,1.003027188E0
5.611821583E0,-6.329493999E-2,-1.823255396E-1,6.738962817E-1,7.009886235E-1
5.621846583E0,4.454514134E-1,-5.006929833E-1,6.401822595E-1,9.267975780E-1
5.631870583E0,8.239492840E-1,-6.847697639E-1,5.461473374E-1,1.202530235E0
5.641895583E0,1.133685653E0,-8.519632941E-1,2.784466021E-1,1.445204873E0
5.651919583E0,1.471865802E0,-1.103447362E0,6.707779616E-3,1.839573324E0
5.661944583E0,1.767804496E0,-1.309948214E0,-1.556387012E-1,2.205747144E0
5.671969583E0,2.128120449E0,-1.626867887E0,-3.595579351E-1,2.702753721E0
5.681993583E0,2.499393500E0,-1.990965235E0,-4.382229392E-1,3.225360411E0
5.692018583E0,2.587673008E0,-2.118207080E0,-3.740381261E-1,3.364930512E0
5.702042583E0,2.481289936E0,-2.039870178E0,-3.668191537E-1,3.233021246E0
5.712067583E0,2.220769581E0,-1.858833949E0,-3.115631850E-1,2.912756907E0
5.722091583E0,2.045048472E0,-1.909459142E0,-1.494700348E-1,2.801891996E0
5.732116583E0,2.220929210E0,-2.230974142E0,-3.322402552E-2,3.148154382E0
5.742140583E0,2.492459287E0,-2.460330591E0,1.396152838E-1,3.505006754E0
5.752165583E0,2.247388446E0,-2.096717393E0,2.459363754E-1,3.083417479E0
5.762190583E0,1.724010605E0,-1.342474521E0,3.257879989E-1,2.209205338E0
5.772214583E0,1.403180898E0,-9.094560421E-1,3.355598657E-1,1.705469833E0
5.782239583E0,1.140325166E0,-6.043109071E-1,3.708454733E-1,1.342780519E0
5.792263583E0,6.280295527E-1,1.339012384E-2,3.492834270E-1,7.187484448E-1
5.802288583E0,1.206409228E-1,4.126175433E-1,2.287709968E-1,4.869739606E-1
5.812312583E0,8.061790109E-2,3.449097097E-2,2.447211778E-1,2.599563962E-1
5.822337583E0,4.662195539E-1,-8.520738065E-1,2.932695130E-1,1.014592259E0
5.832362583E0,8.501465642E-1,-1.729699945E0,3.243123078E-1,1.954428191E0
5.842386583E0,1.180959222E0,-2.507908216E0,5.013787155E-1,2.817028384E0
5.852411583E0,1.527070534E0,-3.091843330E0,7.736917345E-1,3.534124856E0
5.862435583E0,1.782448847E0,-3.324170165E0,9.677530745E-1,3.894069490E0
5.872460583E0,1.695199034E0,-3.172162439E0,1.151658239E0,3.776589864E0
5.882484583E0,1.365064069E0,-2.812235910E0,1.288781294E0,3.381276083E0
5.892509583E0,1.012296286E0,-2.493193113E0,1.236844131E0,2.961509594E0
5.902534583E0,6.144026166E-1,-2.070596126E0,1.090750425E0,2.419627117E0
5.912558583E0,3.008158565E-2,-1.367411726E0,8.086184692E-1,1.588893816E0
5.922583583E0,-5.958780527E-1,-5.559977031E-1,4.994703305E-1,9.558633326E-1
5.932607583E0,-1.173460752E0,1.673636842E-1,2.963685373E-1,1.221824476E0
5.942632583E0,-1.777940644E0,7.827790385E-1,9.482882783E-2,1.944944334E0
5.952656583E0,-2.332872984E0,1.397323743E0,-4.218415260E-2,2.719667168E0
5.962681583E0,-2.787257189E0,1.939925475E0,-1.701878162E-1,3.400158434E0
5.972706583E0,-3.148493494E0,2.368128771E0,-3.556579884E-1,3.955696875E0
5.982730583E0,-3.379576042E0,2.720380830E0,-4.830244517E-1,4.365239822E0
5.992755583E0,-3.468857177E0,2.991172403E0,-5.571168602E-1,4.614158825E0
6.002779583E0,-3.415203127E0,3.136880339E0,-6.936517576E-1,4.688793386E0
6.012804583E0,-3.266440605E0,3.099038329E0,-8.336223328E-1,4.579148282E0
6.022828583E0,-3.047979857E0,2.916309916E0,-8.913717004E-1,4.311564478E0
6.032853583E0,-2.772807550E0,2.709182242E0,-8.939012790E-1,3.978340059E0
6.042877583E0,-2.487409632E0,2.501661635E0,-8.885498341E-1,3.637999233E0
6.052902583E0,-2.180599210E0,2.210373816E0,-9.583341602E-1,3.249487603E0
6.062927583E0,-1.896553752E0,1.907481029E0,-9.438212979E-1,2.850648813E0
6.072951583E0,-1.637579986E0,1.633600956E0,-8.370699973E-1,2.459879362E0
6.082976583E0,-1.378486937E0,1.397872211E0,-7.000343589E-1,2.084303495E0
6.093000583E0,-1.156553528E0,1.179105070E0,-5.452211384E-1,1.739301848E0
6.103025583E0,-1.002996290E0,1.119679232E0,-3.149123240E-1,1.535855759E0
6.113049583E0,-7.614565820E-1,1.129130087E0,-7.793044768E-2,1.364120242E0
6.123074583E0,-4.459876031E-1,1.094394118E0,6.254298806E-2,1.183433586E0
6.133099583E0,-1.236949235E-1,9.827830499E-1,5.125910439E-2,9.918621140E-1
6.143123583E0,1.841200501E-1,8.899047071E-1,2.165582098E-2,9.090102063E-1
6.153148583E0,4.159627354E-1,8.705767357E-1,-2.318421006E-2,9.651250477E-1
6.163172583E0,6.990738076E-1,8.321254456E-1,-1.177336141E-1,1.093159709E0
6.173197583E0,1.021449518E0,6.971886653E-1,-3.020659912E-1,1.273057349E0
6.183221583E0,1.153343992E0,5.775674969E-1,-4.039548934E-1,1.351653111E0
6.193242542E0,1.290681054E0,4.556091964E-1,-3.795672532E-1,1.420390306E0
6.203267542E0,1.511654935E0,3.164747000E-1,-3.724198361E-1,1.588695506E0
6.213291542E0,1.904402470E0,1.266582924E-1,-4.030007739E-1,1.950692368E0
6.223316542E0,2.410811691E0,-1.645488346E-1,-4.177532990E-1,2.452265717E0
6.233340542E0,2.786314033E0,-4.828811949E-1,-3.697827418E-1,2.851922057E0
6.243365542E0,3.031854406E0,-8.180324864E-1,-2.460496652E-1,3.149898209E0
6.253389542E0,3.303033065E0,-1.330636248E0,-1.443910702E-1,3.563912041E0
6.263414542E0,3.585307401E0,-1.992058665E0,-5.246348463E-2,4.101887285E0
6.273439542E0,3.754474366E0,-2.563960794E0,1.027625493E-1,4.547585388E0
6.283463542E0,3.691364783E0,-2.856511611E0,2.022399867E-1,4.671908985E0
6.293488542E0,3.451840026E0,-3.017204207E0,2.398890388E-1,4.590889624E0
6.303512542E0,3.120576548E0,-3.011836463E0,3.164841286E-1,4.348484687E0
6.313537542E0,2.620529097E0,-2.653299233E0,4.323887336E-1,3.754214909E0
6.323561542E0,1.933937926E0,-1.974731610E0,5.060204545E-1,2.809935504E0
6.333586542E0,1.179146585E0,-1.237733932E0,4.645928586E-1,1.771501758E0
6.343611542E0,5.065665114E-1,-8.021491098E-1,2.719176742E-1,9.869103538E-1
6.353635542E0,7.034551263E-2,-6.917566019E-1,8.573428787E-2,7.005897912E-1
6.363660542E0,-1.346947056E-1,-8.543863803E-1,-1.197099730E-1,8.731833875E-1
6.373684542E0,-1.452711493E-1,-1.215556612E0,-2.748039329E-1,1.254670788E0
6.383709542E0,-8.629613221E-2,-1.608652056E0,-3.910594440E-1,1.657750268E0
6.393733542E0,3.929270446E-2,-1.898417260E0,-4.191400393E-1,1.944533461E0
6.403758542E0,2.001905376E-1,-2.094761499E0,-3.767080379E-1,2.137758390E0
6.413782542E0,3.454283577E-1,-2.138258352E0,-4.058248329E-1,2.203670421E0
6.423807542E0,3.465966314E-1,-2.016432783E0,-4.066117951E-1,2.086016190E0
6.433832542E0,1.590302324E-1,-1.841793408E0,-2.795974803E-1,1.869670646E0
6.443856542E0,-7.638334751E-2,-1.714772589E0,-4.087678827E-2,1.716959626E0
6.453881541E0,-3.019502163E-1,-1.558776476E0,1.350816451E-2,1.587809972E0
6.463905542E0,-5.888321579E-1,-1.293962511E0,5.964386545E-2,1.422891311E0
6.473930542E0,-8.686980253E-1,-9.690040863E-1,2.283431999E-1,1.321266739E0
6.483954542E0,-1.134015436E0,-6.479159331E-1,3.683383334E-1,1.357003755E0
6.493979542E0,-1.461292282E0,-2.838776422E-1,5.157654972E-1,1.575428734E0
6.504004542E0,-1.791400350E0,8.408529997E-2,5.999336815E-1,1.891059484E0
6.514028542E0,-2.014624239E0,3.543898004E-1,5.657240347E-1,2.122344609E0
6.524053542E0,-2.070060521E0,4.927951491E-1,5.233070167E-1,2.191311903E0
6.534077542E0,-2.243736860E0,7.142701364E-1,3.717471870E-1,2.383848337E0
6.544102542E0,-2.521854994E0,1.057984675E0,1.426089120E-1,2.738507164E0
6.554126542E0,-2.754382389E0,1.310909497E0,-6.360009156E-2,3.051090137E0
6.564151542E0,-2.993823531E0,1.484976136E0,-2.607765356E-1,3.352034883E0
6.574176542E0,-3.231521618E0,1.619755042E0,-4.929015684E-1,3.648190006E0
6.584200542E0,-3.369289620E0,1.667680576E0,-6.692992008E-1,3.818538001E0
6.594225542E0,-3.363924800E0,1.577645441E0,-7.448405492E-1,3.789425107E0
6.604249542E0,-3.320085885E0,1.469725721E0,-7.067926439E-1,3.699002544E0
6.614274542E0,-3.281948006E0,1.411167903E0,-6.050814240E-1,3.623354950E0
6.624298542E0,-3.135227332E0,1.303533526E0,-4.298929958E-1,3.422522179E0
6.634323542E0,-2.852634907E0,1.162983711E0,-1.992426308E-1,3.087030070E0
6.644348542E0,-2.563792394E0,1.067512713E0,-5.538950443E-2,2.777711798E0
6.654372542E0,-2.277717369E0,9.929770857E-1,2.281108461E-2,2.484858195E0
6.664397542E0,-1.847326044E0,8.267483461E-1,7.749665737E-2,2.025372082E0
6.674421542E0,-1.388321954E0,6.262327033E-1,9.339757562E-2,1.525886088E0
6.684446542E0,-9.573921007E-1,5.215172571E-1,1.053236298E-1,1.095295828E0
6.694470542E0,-5.466994607E-1,3.852239227E-1,1.304852951E-1,6.813986962E-1
6.704495542E0,-1.394356281E-1,2.376708975E-1,2.304645697E-1,3.592264854E-1
6.714520542E0,2.538989675E-1,2.995236218E-3,2.815424835E-1,3.791303564E-1
6.724544542E0,6.745242727E-1,-3.724834245E-1,3.229418667E-1,8.354749220E-1
6.734569542E0,1.033483672E0,-7.534757173E-1,3.369200742E-1,1.322622128E0
6.744593542E0,1.259722386E0,-1.010670760E0,3.573243718E-1,1.654096908E0
6.754618542E0,1.393876809E0,-1.128663771E0,3.537039951E-1,1.828081230E0
6.764642542E0,1.473869643E0,-1.278764428E0,3.362149000E-1,1.980043092E0
6.774667541E0,1.577317997E0,-1.532122529E0,4.092255735E-1,2.236693335E0
6.784691542E0,1.716053129E0,-1.669848431E0,3.777969356E-1,2.424038500E0
6.794716542E0,1.728241065E0,-1.611027780E0,2.974034945E-1,2.381318233E0
6.804741542E0,1.701882402E0,-1.514398156E0,2.173597169E-1,2.288460341E0
6.814765542E0,1.743906341E0,-1.527842367E0,9.290407062E-2,2.320375571E0
6.824790542E0,1.887018113E0,-1.857565103E0,-1.686936334E-2,2.647955824E0
6.834814542E0,2.215001303E0,-2.289325261E0,-5.576255679E-2,3.185961454E0
6.844839542E0,2.434926778E0,-2.353561018E0,-1.661895633E-1,3.390536366E0
6.854863542E0,2.218969223E0,-1.801105558E0,-2.250653239E-1,2.866785665E0
6.864888542E0,1.935017322E0,-1.212130728E0,-2.635973056E-1,2.298485692E0
6.874913542E0,1.766036298E0,-9.120539600E-1,-2.541888432E-1,2.003830981E0
6.884937542E0,1.446750841E0,-5.974942231E-1,-1.938316905E-1,1.577231139E0
6.894962542E0,9.697870284E-1,-2.183017033E-1,-1.212372657E-1,1.001419487E0
6.904986542E0,4.342165732E-1,-9.376127243E-2,-2.046379298E-3,4.442289909E-1
6.915011542E0,1.843568623E-2,-2.080456871E-1,1.526112322E-1,2.586756089E-1
6.925035542E0,-9.895009160E-2,-6.585058254E-1,2.771907663E-1,7.212875735E-1
6.935060542E0,5.837918580E-2,-1.341362088E0,3.182031369E-1,1.379823763E0
6.945085542E0,4.389621735E-1,-1.953771096E0,3.260395753E-1,2.028844768E0
6.955109542E0,1.043338569E0,-2.485404037E0,2.854012804E-1,2.710579733E0
6.965134542E0,1.517194002E0,-2.760647095E0,1.575672591E-1,3.154025597E0
6.975158542E0,1.575400695E0,-2.750211277E0,1.174870808E-1,3.171648252E0
6.985183542E0,1.381393588E0,-2.495293432E0,1.171352246E-1,2.854550441E0
6.995207542E0,1.043515155E0,-2.118707894E0,7.159403935E-3,2.361757455E0
7.005232542E0,6.528012818E-1,-1.783796338E0,-2.680458672E-2,1.899683493E0
7.015257542E0,1.723151064E-1,-1.436461203E0,-3.546687126E-2,1.447194245E0
7.025281542E0,-4.161223644E-1,-9.823737448E-1,-1.126173735E-3,1.066872656E0
7.035306542E0,-1.052311122E0,-4.355380440E-1,1.120864463E-1,1.144384313E0
7.045330542E0,-1.709037055E0,1.896597022E-1,1.713596714E-1,1.728045889E0
7.055355542E0,-2.397054362E0,8.184827220E-1,1.548822176E-1,2.537670602E0
7.065379542E0,-2.955477490E0,1.355786292E0,5.722545706E-2,3.252119066E0
7.075404542E0,-3.369096662E0,1.804351640E0,-1.431633011E-1,3.824525185E0
7.085428542E0,-3.582677908E0,2.127870481E0,-3.443553936E-1,4.181147499E0
7.095453542E0,-3.675027663E0,2.347765258E0,-5.241140056E-1,4.392325753E0
7.105478542E0,-3.720070519E0,2.527131522E0,-6.796674836E-1,4.548325657E0
7.115502542E0,-3.673832492E0,2.599646644E0,-8.432690692E-1,4.578898402E0
7.125527542E0,-3.579863058E0,2.609147492E0,-9.605969596E-1,4.532749350E0
7.135551542E0,-3.391041262E0,2.576581424E0,-9.851036637E-1,4.371311234E0
7.145576542E0,-3.143259067E0,2.547552338E0,-1.047493601E0,4.179395090E0
7.155601542E0,-2.869745030E0,2.438716651E0,-1.030447725E0,3.904433115E0
7.165625542E0,-2.596186554E0,2.249022158E0,-8.962716671E-1,3.549871574E0
7.175650542E0,-2.323800445E0,2.017993990E0,-6.868689144E-1,3.153432599E0
7.185674542E0,-1.992732849E0,1.784025549E0,-4.591759249E-1,2.713774842E0
7.195704208E0,-1.567245584E0,1.499097162E0,-2.537503751E-1,2.183561374E0
7.205728208E0,-1.111620600E0,1.265628366E0,-8.983998343E-2,1.686886701E0
7.215753208E0,-7.143122363E-1,1.211601263E0,3.325318851E-2,1.406884987E0
7.225777208E0,-3.577344078E-1,1.159110223E0,5.312780142E-2,1.214221141E0
7.235802208E0,-5.149701297E-2,1.092195565E0,7.405505933E-2,1.095913886E0
7.245827208E0,1.789592975E-1,1.073775081E0,7.154309548E-2,1.090934356E0
7.255851208E0,3.838088965E-1,9.505058348E-1,5.574501514E-2,1.026585660E0
7.265876208E0,6.737430847E-1,7.081945869E-1,8.327253699E-2,9.810217289E-1
7.275900208E0,9.878783137E-1,4.436253279E-1,1.170881546E-1,1.089227538E0
7.285925208E0,1.249831236E0,2.827292490E-1,1.063070583E-1,1.285813026E0
7.295949208E0,1.521689926E0,1.407737634E-1,7.882397532E-2,1.530219168E0
7.305974208E0,1.829058757E0,-9.893196523E-3,1.278400147E-1,1.833547622E0
7.315998208E0,2.238908229E0,-2.707746166E-1,1.952233279E-1,2.263656577E0
7.326023208E0,2.711270283E0,-6.142453265E-1,1.608441118E-1,2.784628287E0
7.336048208E0,3.113536500E0,-8.884157136E-1,1.092213837E-1,3.239648334E0
7.346072208E0,3.359183877E0,-9.920307139E-1,3.981259502E-2,3.502831184E0
7.356097208E0,3.503486143E0,-1.062754834E0,-1.033903210E-1,3.662588231E0
7.366121208E0,3.744399029E0,-1.333425077E0,-2.536463678E-1,3.982823497E0
7.376146208E0,3.838940905E0,-1.560689978E0,-3.172312566E-1,4.156182882E0
7.386170208E0,3.499937468E0,-1.356282721E0,-3.105854575E-1,3.766368068E0
7.396195208E0,2.901822270E0,-8.994327450E-1,-2.729011758E-1,3.050250285E0
7.406220208E0,2.411107560E0,-6.179390126E-1,-1.429106283E-1,2.493132916E0
7.416244208E0,2.132895870E0,-6.430984122E-1,-8.143300295E-2,2.229226703E0
7.426269208E0,1.801769217E0,-6.845464003E-1,-4.609352790E-2,1.927978397E0
7.436293208E0,1.301021270E0,-4.883617902E-1,1.364279665E-2,1.389726487E0
7.446318208E0,8.574479824E-1,-2.100027502E-1,-2.384604178E-2,8.831120152E-1
7.456342208E0,5.591435051E-1,2.979156375E-3,-1.773378281E-1,5.865995567E-1
7.466367208E0,3.450710928E-1,-3.615567327E-2,-2.840004337E-1,4.483720979E-1
7.476391208E0,2.728006768E-1,-3.420966142E-1,-3.017033907E-1,5.314839967E-1
7.486416208E0,2.611524385E-1,-7.279745480E-1,-3.418831543E-1,8.455954292E-1
7.496441208E0,2.865509892E-1,-1.097771177E0,-2.774667549E-1,1.167990080E0
7.506465208E0,4.508437157E-1,-1.552185495E0,-1.049586904E-1,1.619739545E0
7.516490208E0,7.027973145E-1,-1.969060688E0,1.139342030E-1,2.093825461E0
7.526514208E0,9.051706177E-1,-2.214870033E0,2.592971170E-1,2.406702745E0
7.536539208E0,9.597169536E-1,-2.238465887E0,3.239719999E-1,2.456978635E0
7.546563208E0,7.965802217E-1,-2.134626061E0,4.195937832E-1,2.316727738E0
7.556588208E0,5.613052207E-1,-1.918803285E0,5.169195183E-1,2.064963774E0
7.566613208E0,3.252016693E-1,-1.618399950E0,4.642303312E-1,1.714784046E0
7.576637208E0,3.908395886E-2,-1.243039987E0,3.547389523E-1,1.293257782E0
7.586662208E0,-2.819819748E-1,-8.238501737E-1,2.730779079E-1,9.125867008E-1
7.596686208E0,-6.292744249E-1,-3.906995478E-1,2.188052217E-1,7.723394096E-1
7.606711208E0,-1.041599023E0,4.814012647E-2,1.953835416E-1,1.060858485E0
7.616735208E0,-1.511602310E0,4.440574372E-1,1.592127386E-1,1.583501578E0
7.626760208E0,-1.992494867E0,8.551219600E-1,1.507342029E-1,2.173474214E0
7.636784208E0,-2.409354565E0,1.240270454E0,5.967551351E-2,2.710502054E0
7.646809208E0,-2.709502670E0,1.548494148E0,-7.359422565E-2,3.121642989E0
7.656834208E0,-2.883967212E0,1.768256485E0,-1.906917357E-1,3.388268174E0
7.666858208E0,-2.974778565E0,1.924358432E0,-2.534463930E-1,3.551999150E0
7.676883208E0,-3.023128021E0,1.991026631E0,-3.344267849E-1,3.635289721E0
7.686907208E0,-2.984070375E0,1.983600667E0,-3.287748663E-1,3.598255205E0
7.696932208E0,-2.894672295E0,1.918570274E0,-2.851102718E-1,3.484440767E0
7.706956208E0,-2.643947781E0,1.678101191E0,-3.007328260E-1,3.145937651E0
7.716981208E0,-2.291964694E0,1.385186677E0,-2.707413240E-1,2.691680730E0
7.727006208E0,-1.986586255E0,1.287373284E0,-1.704381502E-1,2.373373988E0
7.737030208E0,-1.746691954E0,1.222644022E0,-1.712835845E-1,2.138955178E0
7.747055208E0,-1.655427443E0,1.149497108E0,-1.099872959E-1,2.018385698E0
7.757079208E0,-1.598638700E0,1.188565865E0,4.615444858E-2,1.992602504E0
7.767104208E0,-1.524731648E0,1.148556876E0,8.806374550E-2,1.910953877E0
7.777128208E0,-1.389935201E0,1.010493297E0,4.410905600E-2,1.719000342E0
7.787153208E0,-1.285326759E0,8.767791697E-1,2.101492960E-2,1.556036059E0
7.797177208E0,-1.117592361E0,6.836047062E-1,1.252356648E-2,1.310146908E0
7.807202208E0,-9.530388486E-1,5.735060209E-1,1.433737278E-2,1.112383820E0
7.817227208E0,-7.151355243E-1,4.979117551E-1,3.516047716E-2,8.721073289E-1
7.827251208E0,-2.526149189E-1,2.313828018E-1,7.264003314E-2,3.501840554E-1
7.837276208E0,4.268718857E-1,-3.091352749E-1,1.469535394E-1,5.471558897E-1
7.847300208E0,8.781746078E-1,-3.686651927E-1,3.352442622E-1,1.009699649E0
7.857325208E0,6.052733588E-1,-2.993014276E-2,-8.749539614E-2,6.122965758E-1
7.867349208E0,9.818457413E-1,-7.509330556E-1,-3.780166447E-1,1.292601291E0
7.877374208E0,1.480703284E0,-1.387276472E0,1.505424873E-1,2.034620668E0
7.887398208E0,1.679789867E0,-1.738242143E0,3.653060404E-1,2.444714349E0
7.897423208E0,1.741780293E0,-1.901296429E0,2.151646721E-1,2.587474161E0
7.907448208E0,1.646455475E0,-1.844193690E0,-5.587599277E-3,2.472225156E0
7.917472208E0,1.301274455E0,-1.697803384E0,-9.331454515E-2,2.141158364E0
7.927497208E0,1.037805934E0,-1.719218811E0,-3.355015397E-2,2.008452163E0
7.937521208E0,1.096872168E0,-2.022330577E0,-1.936824404E-2,2.300722635E0
7.947546208E0,1.408703594E0,-2.423647499E0,6.064658985E-3,2.803310506E0
7.957570208E0,1.408272654E0,-2.458933984E0,1.060241262E-1,2.835635611E0
7.967595208E0,1.056615842E0,-1.885315989E0,2.262697041E-1,2.173028162E0
7.977619208E0,7.848091918E-1,-1.291457857E0,2.855955541E-1,1.537970638E0
7.987644208E0,9.080503714E-1,-1.202651807E0,3.365342311E-1,1.544079705E0
7.997669208E0,9.324905634E-1,-1.131635034E0,4.745459890E-1,1.541210692E0
8.007693208E0,6.584146088E-1,-8.410617453E-1,6.302525910E-1,1.240206832E0
8.017718208E0,3.670016599E-1,-5.465024096E-1,6.549196550E-1,9.285875599E-1
8.027742208E0,2.376489705E-1,-5.249332005E-1,6.701890739E-1,8.838468719E-1
8.037767208E0,3.978129780E-1,-8.422893682E-1,6.921595482E-1,1.160513415E0
8.047791208E0,7.303587502E-1,-1.423528332E0,6.451081733E-1,1.725114886E0
8.057816208E0,1.093988906E0,-1.982384446E0,5.128779960E-1,2.321573530E0
8.067840208E0,1.483161453E0,-2.337792832E0,4.435885636E-1,2.803892657E0
8.077865208E0,1.698001020E0,-2.509190510E0,3.844906088E-1,3.054026442E0
8.087890208E0,1.609337935E0,-2.475319929E0,2.812067071E-1,2.965848032E0
8.097914208E0,1.269980156E0,-2.153675120E0,2.230924002E-1,2.510166596E0
8.107939208E0,8.033629918E-1,-1.736954294E0,1.628812817E-1,1.920659425E0
8.117963208E0,3.587559164E-1,-1.376634539E0,1.400127482E-1,1.429486632E0
8.127988208E0,-1.013854569E-1,-9.771784937E-1,1.857297885E-1,9.998261718E-1
8.138012208E0,-4.757399905E-1,-5.314396897E-1,2.471372473E-1,7.548731690E-1
8.148037208E0,-7.946342683E-1,-2.924046367E-2,2.762225405E-1,8.417823453E-1
8.158061208E0,-1.234257177E0,5.744231567E-1,2.813505486E-1,1.390147788E0
8.168086208E0,-1.701647344E0,1.177359091E0,2.647104692E-1,2.086108756E0
8.178111208E0,-2.156103469E0,1.733257684E0,2.110505712E-1,2.774438089E0
8.188134708E0,-2.536386495E0,2.220903775E0,1.208561734E-1,3.373466502E0
8.198159708E0,-2.766482032E0,2.592637294E0,2.903610349E-2,3.791574088E0
8.208183708E0,-2.829799776E0,2.792821984E0,-8.317905463E-2,3.976749950E0
8.218208708E0,-2.731263083E0,2.786114058E0,-2.697531080E-1,3.910881782E0
8.228232708E0,-2.572830436E0,2.664850115E0,-4.086817094E-1,3.726647733E0
8.238257708E0,-2.350405861E0,2.512283979E0,-5.315292983E-1,3.481163871E0
8.248281708E0,-2.045753646E0,2.290185679E0,-6.877389070E-1,3.146910108E0
8.258306708E0,-1.806999552E0,2.017619768E0,-7.579102457E-1,2.812554861E0
8.268331708E0,-1.602205501E0,1.749158017E0,-7.799203348E-1,2.496976565E0
8.278355708E0,-1.425391547E0,1.531566166E0,-7.854610102E-1,2.234812069E0
8.288380708E0,-1.396016890E0,1.400153210E0,-7.913843858E-1,2.129690450E0
8.298404708E0,-1.351309664E0,1.303637314E0,-7.761336780E-1,2.031721325E0
8.308429708E0,-1.290907926E0,1.250344914E0,-7.349260104E-1,1.941628677E0
8.318453708E0,-1.298305823E0,1.203698459E0,-6.638367319E-1,1.890811254E0
8.328478708E0,-1.130922843E0,1.124460793E0,-4.583970392E-1,1.659375303E0
8.338502708E0,-8.349935049E-1,1.091425486E0,-3.278288964E-1,1.412761668E0
8.348527708E0,-8.741125470E-1,1.462107968E0,-2.962830949E-1,1.729050644E0
8.358552708E0,-8.176904243E-1,1.466843628E0,-1.845778871E-1,1.689472360E0
8.368576708E0,-6.913718551E-1,1.101093565E0,-1.878324107E-1,1.313652578E0
8.378601708E0,-3.837130022E-1,7.819080958E-1,-2.024246856E-1,8.941989106E-1
8.388625708E0,-6.096073151E-2,4.426865575E-1,-2.047086080E-1,4.915213252E-1
8.398650708E0,1.611434162E-1,1.632864207E-1,-1.995175231E-1,3.040343694E-1
8.408674708E0,3.686347872E-1,8.364734352E-3,-3.154607562E-1,4.852597901E-1
8.418699708E0,6.325383407E-1,-2.881709602E-1,-4.726070158E-1,8.405383074E-1
8.428723708E0,9.864200181E-1,-7.231579041E-1,-4.839787904E-1,1.315377237E0
8.438748708E0,1.462229590E0,-1.172916377E0,-4.259567964E-1,1.922313032E0
8.448772708E0,1.957095823E0,-1.489695424E0,-3.847572784E-1,2.489468755E0
8.458797708E0,2.201046338E0,-1.673678942E0,-3.499477438E-1,2.787161568E0
8.468822708E0,2.272263086E0,-1.669554901E0,-1.912145499E-1,2.826155711E0
8.478846708E0,2.675937313E0,-1.887294394E0,1.207777842E-1,3.276752646E0
8.488871708E0,3.127091516E0,-2.187664108E0,-9.012192886E-2,3.817420275E0
8.498895708E0,3.011763958E0,-2.130445594E0,-3.465481726E-1,3.705349674E0
8.508920708E0,2.697760291E0,-1.927667372E0,-1.318792713E-1,3.318313461E0
8.518944708E0,2.378938519E0,-1.657870117E0,-6.203552283E-2,2.900298296E0
8.528969708E0,2.145642800E0,-1.481786188E0,-1.278680082E-1,2.610713228E0
8.538993708E0,1.868891745E0,-1.326704580E0,4.564797007E-2,2.292375435E0
8.549018708E0,1.405547267E0,-9.339596763E-1,2.220141371E-1,1.702096963E0
8.559043708E0,9.493410695E-1,-4.070273128E-1,2.951171601E-1,1.074250361E0
8.569067708E0,6.414746404E-1,1.410348415E-3,1.905186947E-1,6.691704389E-1
8.579092708E0,5.636353362E-1,3.078208208E-2,5.730271339E-5,5.644752714E-1
8.589116708E0,7.611782545E-1,-3.970575178E-1,-2.207370687E-1,8.864377367E-1
8.599141708E0,9.952130610E-1,-9.961989015E-1,-3.038681030E-1,1.440554446E0
8.609165708E0,1.144875469E0,-1.557041607E0,-3.613404222E-1,1.966134611E0
8.619190708E0,1.362248050E0,-1.998757235E0,-3.565468748E-1,2.444969511E0
8.629214708E0,1.674225072E0,-2.345449761E0,-2.601975882E-1,2.893417867E0
8.639239708E0,1.847803177E0,-2.449791862E0,-5.063688755E-2,3.068944581E0
8.649263708E0,1.778053495E0,-2.332755455E0,1.944759806E-1,2.939565130E0
8.659288708E0,1.582820227E0,-2.196705365E0,4.512319708E-1,2.744894283E0
8.669313708E0,1.300701427E0,-2.078244869E0,6.088132632E-1,2.526178839E0
8.679337708E0,1.051343992E0,-1.903004985E0,6.443738361E-1,2.267591190E0
8.689362708E0,7.014846146E-1,-1.580528703E0,6.454050656E-1,1.845724613E0
8.699386708E0,1.718210167E-1,-1.109358312E0,6.446474127E-1,1.294514817E0
8.709411708E0,-3.528408730E-1,-4.604290563E-1,5.751801518E-1,8.168988950E-1
8.719435708E0,-9.079989159E-1,2.102904332E-1,5.244380144E-1,1.069448142E0
8.729460708E0,-1.466565886E0,7.745107833E-1,4.950698256E-1,1.730831182E0
8.739484708E0,-1.980647238E0,1.279432765E0,4.194511843E-1,2.394963670E0
8.749509708E0,-2.450881491E0,1.726063854E0,2.620231986E-1,3.009114931E0
8.759533708E0,-2.872685595E0,2.090245110E0,5.887327552E-2,3.553155387E0
8.769558708E0,-3.213578267E0,2.365473843E0,-1.319155240E-1,3.992487130E0
8.779583708E0,-3.435162013E0,2.486079682E0,-2.570377529E-1,4.248175920E0
8.789607708E0,-3.653692927E0,2.513824428E0,-3.415440524E-1,4.448082463E0
8.799632708E0,-3.882655274E0,2.620479981E0,-3.881416468E-1,4.700274592E0
8.809656708E0,-3.930049295E0,2.677866894E0,-4.793477225E-1,4.779752379E0
8.819681708E0,-3.874400759E0,2.618991572E0,-5.337011369E-1,4.706902910E0
8.829705708E0,-3.732872998E0,2.485582669E0,-5.011519897E-1,4.512606269E0
8.839730708E0,-3.337819321E0,2.250272292E0,-3.228844909E-1,4.038442472E0
8.849754708E0,-2.738763306E0,1.790279438E0,-6.735049568E-2,3.272684067E0
8.859779708E0,-2.128784693E0,1.401353936E0,1.805726540E-1,2.555019297E0
8.869804708E0,-1.532188017E0,1.146485792E0,3.419440019E-1,1.943953573E0
8.879828708E0,-9.778088236E-1,8.722972789E-1,4.059558105E-1,1.371791806E0
8.889853708E0,-5.861108637E-1,6.117599675E-1,4.266619706E-1,9.485866537E-1
8.899877708E0,-3.097439700E-1,3.744021884E-1,4.300347177E-1,6.488822575E-1
8.909902708E0,-1.027513665E-1,1.994815627E-1,3.217887226E-1,3.922992725E-1
8.919926708E0,3.429625869E-2,-3.548236638E-2,2.353983772E-1,2.405153377E-1
8.929951708E0,1.051703596E-1,-3.476228178E-1,2.103361145E-1,4.196947808E-1
8.939975708E0,1.932650954E-1,-6.170718706E-1,2.248418140E-1,6.846042155E-1
8.950000708E0,3.477695829E-1,-7.970743114E-1,3.113303196E-1,9.236870187E-1
8.960024708E0,6.534485686E-1,-1.015408467E0,4.047312574E-1,1.273521408E0
8.970049708E0,1.039387021E0,-1.274354458E0,4.102605307E-1,1.694880045E0
8.980074708E0,1.321333913E0,-1.461690477E0,3.519777509E-1,2.001587044E0
8.990098708E0,1.507736716E0,-1.571295073E0,2.900149528E-1,2.196894827E0
9.000123708E0,1.660846642E0,-1.699413123E0,2.367245257E-1,2.387981372E0
9.010147708E0,1.807617602E0,-1.908638193E0,1.449115455E-1,2.632751508E0
9.020172708E0,1.817922735E0,-2.036678182E0,8.839930259E-2,2.731431040E0
9.030196708E0,1.671837654E0,-1.894776784E0,9.897464991E-2,2.528836923E0
9.040221708E0,1.654933353E0,-1.808143559E0,1.184703632E-1,2.454021752E0
9.050245708E0,1.946940379E0,-2.189580825E0,1.347012106E-1,2.933084630E0
9.060270708E0,2.148713758E0,-2.559239460E0,1.917676234E-1,3.347155845E0
9.070294708E0,1.917768036E0,-2.377600091E0,2.308832303E-1,3.063351677E0
9.080319708E0,1.517575825E0,-1.749971657E0,2.342980043E-1,2.328160807E0
9.090343708E0,1.227433476E0,-1.248617646E0,2.358860350E-1,1.766714801E0
9.100368708E0,8.845293617E-1,-8.584338230E-1,2.673476366E-1,1.261259521E0
9.110393708E0,2.929887736E-1,-2.976025191E-1,3.081343777E-1,5.189956412E-1
9.120417708E0,-4.035865188E-1,3.590506160E-1,2.872153059E-1,6.117941279E-1
9.130442708E0,-8.640524125E-1,7.169300348E-1,2.731304598E-1,1.155497942E0
9.140466708E0,-9.057559240E-1,4.456180590E-1,2.848611438E-1,1.048863728E0
9.150491708E0,-5.625471693E-1,-3.222105262E-1,2.483676477E-1,6.942373004E-1
9.160515708E0,-2.084087992E-1,-1.112253853E0,1.340427411E-1,1.139521969E0
9.170540708E0,2.359187794E-1,-1.849687150E0,6.885089122E-2,1.865942300E0
9.180564708E0,8.526632059E-1,-2.603501421E0,9.918405332E-2,2.741366751E0
9.190585708E0,1.393280978E0,-2.960847573E0,1.970967027E-1,3.278215573E0
9.200609708E0,1.641922714E0,-2.829644825E0,3.112776216E-1,3.286288756E0
9.210634708E0,1.459517067E0,-2.423157502E0,4.597958028E-1,2.865884598E0
9.220659708E0,1.148871456E0,-1.986802602E0,6.641255113E-1,2.389215959E0
9.230683708E0,8.828833705E-1,-1.630540524E0,7.558089025E-1,2.002346759E0
9.240708708E0,5.148105007E-1,-1.262178217E0,7.190952587E-1,1.541175426E0
9.250732708E0,1.571439207E-2,-6.964618564E-1,6.963132640E-1,9.849661015E-1
9.260757708E0,-5.189380503E-1,5.794649184E-2,6.793083914E-1,8.568047541E-1
9.270781708E0,-1.057316338E0,7.825553825E-1,4.993452732E-1,1.407002654E0
9.280806708E0,-1.468905357E0,1.342983229E0,3.788013411E-1,2.026025013E0
9.290830708E0,-1.776356049E0,1.813938442E0,2.732017227E-1,2.553517704E0
9.300855708E0,-2.017154329E0,2.227456165E0,8.307840943E-2,3.006222643E0
9.310879708E0,-2.143802097E0,2.533686835E0,-1.661251708E-1,3.323109084E0
9.320904708E0,-2.184508073E0,2.702469639E0,-5.170762968E-1,3.513230076E0
9.330928708E0,-2.277134986E0,2.847444334E0,-8.489596526E-1,3.743529814E0
9.340953708E0,-2.399920083E0,2.979462477E0,-1.005770136E0,3.955804168E0
9.350978708E0,-2.454999685E0,2.979737296E0,-1.071389929E0,4.006711143E0
9.361002708E0,-2.419960245E0,2.820476683E0,-1.067183442E0,3.866545849E0
9.371027708E0,-2.279288515E0,2.558559721E0,-9.688917466E-1,3.560917747E0
9.381051708E0,-2.087718528E0,2.286725589E0,-8.259647461E-1,3.204668522E0
9.391076708E0,-1.858057439E0,1.966449907E0,-6.777565404E-1,2.789024311E0
9.401100708E0,-1.612499524E0,1.639787310E0,-4.907755208E-1,2.351577715E0
9.411125708E0,-1.425910195E0,1.317672679E0,-3.995669965E-1,1.982204570E0
9.421149708E0,-1.250707149E0,9.809060937E-1,-2.536310919E-1,1.609588105E0
9.431174708E0,-1.158451535E0,7.892945910E-1,-6.242721319E-2,1.403172500E0
9.441198708E0,-1.230055953E0,8.105641302E-1,1.048956136E-1,1.476839513E0
9.451223708E0,-1.345734928E0,9.852464819E-1,2.473383915E-1,1.686087011E0
9.461247708E0,-1.411600889E0,1.143934652E0,3.198520517E-1,1.844860128E0
9.471272708E0,-1.306365041E0,1.158769915E0,3.375656799E-1,1.778563444E0
9.481297708E0,-1.086993881E0,1.108547888E0,3.106403482E-1,1.583329259E0
9.491321708E0,-8.474597687E-1,1.034216913E0,2.238630632E-1,1.355694418E0
9.501346708E0,-5.329058790E-1,8.113359627E-1,1.165830282E-1,9.776739348E-1
9.511370708E0,-8.773747087E-2,4.594619268E-1,-4.052580915E-2,4.695162055E-1
9.521395708E0,5.529051107E-1,5.695889711E-2,-1.476421221E-1,5.751057065E-1
9.531419708E0,1.142000393E0,-2.711330509E-1,-2.353679717E-1,1.197111570E0
9.541444708E0,1.654642162E0,-5.866607943E-1,-3.327673086E-1,1.786825580E0
9.551468708E0,2.204983268E0,-9.457087791E-1,-3.825306221E-1,2.429536167E0
9.561493708E0,2.612193891E0,-1.288314101E0,-3.344046021E-1,2.931746337E0
9.571517708E0,2.774552944E0,-1.447580853E0,-1.958758041E-1,3.135602286E0
9.581542708E0,2.739498886E0,-1.335287708E0,-1.207661994E-2,3.047620917E0
9.591566708E0,2.761740525E0,-1.151193678E0,4.249529757E-2,2.992367534E0
9.601591708E0,2.901343383E0,-1.342036564E0,-8.439797983E-3,3.196705616E0
9.611616708E0,3.090769197E0,-1.805708779E0,6.889087155E-2,3.580249206E0
9.621640708E0,3.170750921E0,-1.977234219E0,1.741278894E-1,3.740780277E0
9.631665708E0,2.942314239E0,-1.707650972E0,1.780722749E-1,3.406610435E0
9.641689708E0,2.579712024E0,-1.228469603E0,1.942561984E-1,2.863876248E0
9.651714708E0,2.367370387E0,-9.489148074E-1,2.256580123E-1,2.560430316E0
9.661738708E0,2.204582149E0,-7.547021708E-1,2.306037334E-1,2.341566976E0
9.671763708E0,1.819216724E0,-3.498590854E-1,2.601368503E-1,1.870727679E0
9.681787708E0,1.239379923E0,1.940404361E-1,3.081787435E-1,1.291777234E0
9.691812708E0,7.821475393E-1,4.851104459E-1,3.103034024E-1,9.712749968E-1
9.701836708E0,7.175977868E-1,2.358360413E-1,2.341436012E-1,7.908150529E-1
9.711861708E0,9.982653075E-1,-3.753131846E-1,1.125449045E-1,1.072408489E0
9.721885708E0,1.342952823E0,-1.097370643E0,-9.802623153E-2,1.737053181E0
9.731910708E0,1.647054230E0,-1.711040311E0,-1.984018743E-1,2.383235172E0
9.741934708E0,2.040670661E0,-2.251417470E0,-2.134912721E-1,3.046111602E0
9.751959708E0,2.324043104E0,-2.522599345E0,-1.784850883E-1,3.434609254E0
9.761984708E0,2.281325101E0,-2.388513627E0,-5.005918264E-2,3.303323702E0
9.772008708E0,1.971762394E0,-2.132475455E0,1.332860383E-1,2.907415291E0
9.782033708E0,1.688762419E0,-1.892470057E0,3.403699315E-1,2.559143043E0
9.792057708E0,1.469559660E0,-1.710603816E0,4.558221082E-1,2.300770481E0
9.802082708E0,1.148287904E0,-1.425007385E0,4.755692518E-1,1.890866804E0
9.812106708E0,6.682531339E-1,-1.011234432E0,5.177546469E-1,1.318039150E0
9.822131708E0,8.734102964E-2,-5.073070613E-1,5.568432835E-1,7.583293165E-1
9.832155708E0,-5.515684372E-1,2.355521590E-2,5.444705021E-1,7.753906866E-1
9.842180708E0,-1.196822133E0,5.490500414E-1,5.082703169E-1,1.411445316E0
9.852204708E0,-1.821577830E0,1.058435788E0,4.336892275E-1,2.150934321E0
9.862229708E0,-2.397061964E0,1.522090753E0,3.708363370E-1,2.863596673E0
9.872253708E0,-2.894332572E0,1.961373062E0,2.924835742E-1,3.508517060E0
9.882278708E0,-3.247162920E0,2.280186355E0,1.658574780E-1,3.971249872E0
9.892302708E0,-3.449481844E0,2.407493689E0,1.677690424E-2,4.206570137E0
9.902327708E0,-3.511997935E0,2.404129493E0,-9.752578296E-2,4.257168001E0
9.912352708E0,-3.472950228E0,2.237432976E0,-1.886195556E-1,4.135585442E0
9.922376708E0,-3.406037031E0,1.997361797E0,-2.354860854E-1,3.955502004E0
9.932401708E0,-3.352367778E0,1.812674274E0,-2.621447110E-1,3.820062512E0
9.942425708E0,-3.375664839E0,1.672416820E0,-2.892782036E-1,3.778329394E0
9.952450708E0,-3.423475183E0,1.520263206E0,-3.115385536E-1,3.758781559E0
9.962474708E0,-3.410790818E0,1.387923759E0,-3.619426489E-1,3.700112004E0
9.972499708E0,-3.379183109E0,1.219608440E0,-4.592789821E-1,3.621775865E0
9.982523708E0,-3.263049220E0,9.694268399E-1,-4.939260006E-1,3.439657178E0
9.992548708E0,-3.046640845E0,6.711477980E-1,-3.529321627E-1,3.139589291E0
1.000257271E1,-2.684549677E0,3.160934615E-1,-1.466598630E-1,2.707070586E0
1.001259771E1,-2.149834085E0,-8.545998037E-3,4.548669655E-2,2.150332222E0
1.002262171E1,-1.621658018E0,-2.688672549E-1,1.565697972E-1,1.651235425E0
1.003264671E1,-1.112641523E0,-5.340022320E-1,2.238057605E-1,1.254280097E0
1.004267071E1,-6.788746011E-1,-8.221036103E-1,2.581452886E-1,1.096979517E0
1.005269571E1,-4.068673915E-1,-1.040845609E0,3.001575331E-1,1.157149602E0
1.006272071E1,-2.725089008E-1,-1.070042803E0,2.972596530E-1,1.143510386E0
1.007274471E1,-1.148369765E-1,-1.096363167E0,1.975470114E-1,1.119921670E0
1.008276971E1,1.134470934E-1,-1.254006148E0,1.389193920E-1,1.266767642E0
1.009279371E1,3.876891088E-1,-1.437004994E0,1.001440930E-1,1.491748986E0
1.010281871E1,6.742763507E-1,-1.606483617E0,1.203930008E-1,1.746405646E0
1.011284271E1,1.042111824E0,-1.857560425E0,1.728811169E-1,2.136917328E0
1.012286771E1,1.419326230E0,-2.184851890E0,1.673040426E-1,2.610757624E0
1.013289171E1,1.548531570E0,-2.284075923E0,1.492022324E-1,2.763551004E0
1.014291671E1,1.607299011E0,-2.225442384E0,1.508009342E-1,2.749317158E0
1.015294071E1,1.810516067E0,-2.303348638E0,1.006424220E-1,2.931469303E0
1.016296571E1,2.134621384E0,-2.620297548E0,-8.926213235E-3,3.379740725E0
1.017298971E1,2.267565433E0,-2.842381815E0,-6.065199852E-2,3.636573392E0
1.018301471E1,2.100788224E0,-2.582855195E0,-8.938770130E-2,3.330531831E0
1.019303883E1,1.940449970E0,-2.111730119E0,-1.526088202E-1,2.871940047E0
1.020306383E1,1.856129027E0,-1.689008002E0,-1.189744663E-1,2.512392867E0
1.021308783E1,1.651532028E0,-1.224219847E0,3.103351235E-2,2.056024161E0
1.022311283E1,1.255572032E0,-5.931754696E-1,1.413084912E-1,1.395810286E0
1.023313783E1,8.459804231E-1,2.211387724E-2,1.932447032E-1,8.680526569E-1
1.024316183E1,4.617733312E-1,4.358467770E-1,2.155014718E-1,6.705504505E-1
1.025318683E1,2.996955299E-1,3.925683179E-1,2.294471542E-1,5.445854308E-1
1.026321083E1,3.546552640E-1,-7.898711264E-3,2.269913236E-1,4.211505751E-1
1.027323583E1,6.694325173E-1,-5.536757737E-1,4.621061839E-2,8.699610215E-1
1.028325983E1,1.059166982E0,-1.159685005E0,-2.487767335E-1,1.590155297E0
1.029328483E1,1.450252154E0,-1.709425310E0,-2.988348198E-1,2.261563276E0
1.030330883E1,1.781865295E0,-2.033564833E0,-2.643641679E-1,2.716674119E0
1.031333383E1,1.960694200E0,-2.166657109E0,-2.784971805E-1,2.935350993E0
1.032335783E1,1.919484193E0,-1.968487369E0,-1.850222024E-1,2.755647892E0
1.033338283E1,1.599993500E0,-1.783307803E0,-6.663136125E-2,2.396790700E0
1.034340683E1,1.181099555E0,-1.609204326E0,1.734472004E-1,2.003651330E0
1.035343183E1,6.815321606E-1,-1.313452451E0,3.795018375E-1,1.527633814E0
1.036345583E1,3.568555713E-2,-9.284308416E-1,4.614213288E-1,1.037384658E0
1.037348083E1,-6.739231789E-1,-4.382070056E-1,5.546201722E-1,9.766275473E-1
1.038350483E1,-1.393924171E0,1.480877531E-1,6.549442863E-1,1.547225451E0
1.039352983E1,-2.019637642E0,7.079338011E-1,6.650857703E-1,2.241081336E0
1.040355383E1,-2.572476094E0,1.118897167E0,5.828842970E-1,2.865190784E0
1.041357883E1,-2.995940807E0,1.444331848E0,5.619138428E-1,3.373055436E0
1.042360383E1,-3.245635042E0,1.695569163E0,5.485541975E-1,3.702703515E0
1.043362783E1,-3.264142649E0,1.840232202E0,4.195248592E-1,3.770554720E0
1.044365283E1,-3.186942446E0,1.884957554E0,2.283875656E-1,3.709693790E0
1.045367683E1,-3.041756666E0,1.972363488E0,1.674876451E-1,3.629125715E0
1.046370183E1,-2.944863625E0,2.133359847E0,1.924599338E-1,3.641495137E0
1.047372583E1,-2.841766688E0,2.220080779E0,-8.335797943E-2,3.607124218E0
1.048375083E1,-2.739806449E0,2.253484168E0,-3.297478064E-1,3.562788780E0
1.049377483E1,-2.645821813E0,2.139858442E0,-3.676507008E-1,3.422650181E0
1.050379983E1,-2.515061699E0,1.957423267E0,-3.743210948E-1,3.208918428E0
1.051382383E1,-2.239532127E0,1.889151762E0,-1.176436035E-1,2.932275319E0
1.052384883E1,-2.036986331E0,1.547393702E0,-4.909543725E-1,2.604760407E0
1.053387283E1,-1.798070853E0,1.155437880E0,-9.167896199E-1,2.325639416E0
1.054389783E1,-1.500931141E0,1.156001259E0,-8.117513343E-1,2.061085498E0
1.055392183E1,-1.150996335E0,1.207910208E0,-5.678359028E-1,1.762463403E0
1.056394683E1,-7.832345366E-1,1.221231335E0,-4.276758047E-1,1.512537241E0
1.057397083E1,-5.105893958E-1,1.272429555E0,-3.297069490E-1,1.410136581E0
1.058399583E1,-1.671145928E-1,1.331655418E0,-2.172568059E-1,1.359571241E0
1.059401983E1,2.833005220E-1,1.312811888E0,-1.539454937E-2,1.343119962E0
1.060404483E1,6.660183281E-1,1.251556165E0,9.479579106E-3,1.417766945E0
1.061406883E1,1.096231313E0,9.154824749E-1,-1.323387893E-1,1.434344731E0
1.062409383E1,1.601274624E0,5.181092075E-1,-1.752947379E-1,1.692112827E0
1.063411883E1,1.942370780E0,2.244608679E-1,-5.242609899E-2,1.955999853E0
1.064414283E1,2.087964111E0,4.186314046E-2,2.380993523E-2,2.088519467E0
1.065416783E1,2.293600745E0,-1.567565426E-1,3.211056948E-2,2.299175522E0
1.066419183E1,2.658001564E0,-4.187156045E-1,-1.221607603E-2,2.690807370E0
1.067421683E1,2.940213334E0,-6.226808122E-1,-2.865208760E-3,3.005427433E0
1.068424083E1,3.029921317E0,-6.927412730E-1,-2.526355304E-2,3.108207185E0
1.069426583E1,3.229445856E0,-8.242565551E-1,-1.551803891E-1,3.336585135E0
1.070428983E1,3.627297426E0,-1.243990160E0,-4.093190559E-1,3.856467324E0
1.071431483E1,3.815618116E0,-1.666219356E0,-6.753393745E-1,4.217974848E0
1.072433883E1,3.542491164E0,-1.651187627E0,-7.952833092E-1,3.988500943E0
1.073436383E1,3.028108095E0,-1.254042985E0,-7.380589485E-1,3.359582333E0
1.074438783E1,2.642401777E0,-1.071146173E0,-6.801598191E-1,2.931255474E0
1.075441283E1,2.376264002E0,-1.029042419E0,-4.496146309E-1,2.628252695E0
1.076443683E1,2.018026149E0,-8.670491105E-1,-1.748785257E-1,2.203357937E0
1.077446183E1,1.490083387E0,-4.745278627E-1,2.571601789E-2,1.564028934E0
1.078448583E1,9.548152328E-1,-1.064073381E-1,2.448767320E-1,9.914430211E-1
1.079451083E1,5.971217555E-1,-3.140334874E-2,3.690634247E-1,7.026723081E-1
1.080453483E1,5.322381270E-1,-3.887535945E-1,4.364958179E-1,7.905285448E-1
1.081455983E1,7.250249201E-1,-1.016283210E0,3.894046819E-1,1.307718894E0
1.082458383E1,9.204417908E-1,-1.599732129E0,2.277864718E-1,1.859635086E0
1.083460883E1,1.161163473E0,-2.122626990E0,1.073011215E-1,2.421850425E0
1.084463283E1,1.313764107E0,-2.411473888E0,2.298681172E-1,2.755725276E0
1.085465783E1,1.348750922E0,-2.365359530E0,3.301056560E-1,2.742813245E0
1.086468183E1,1.285002238E0,-2.195085394E0,3.112929340E-1,2.562524913E0
1.087470683E1,1.102881351E0,-1.935590349E0,3.748356863E-1,2.259061545E0
1.088473183E1,8.120361668E-1,-1.711306359E0,4.326167750E-1,1.942969239E0
1.089475583E1,4.058400357E-1,-1.406019137E0,5.042673862E-1,1.547863542E0
1.090478083E1,-4.855118573E-2,-9.468025008E-1,5.241094009E-1,1.083274138E0
1.091480483E1,-4.909754956E-1,-5.010522947E-1,4.921860154E-1,8.569465637E-1
1.092482983E1,-9.981431007E-1,-6.587999403E-2,5.155045652E-1,1.125333186E0
1.093485383E1,-1.502280094E0,3.049077380E-1,5.898168290E-1,1.642467078E0
1.094487883E1,-1.985615033E0,7.069043988E-1,6.254276148E-1,2.198531462E0
1.095490283E1,-2.446052860E0,1.109057765E0,5.853565729E-1,2.748786284E0
1.096492783E1,-2.795778921E0,1.410113065E0,5.175896823E-1,3.173751363E0
1.097495183E1,-3.018542635E0,1.612497770E0,5.007744057E-1,3.458688148E0
1.098497683E1,-3.093671170E0,1.773647618E0,4.076363003E-1,3.589261001E0
1.099500083E1,-3.142943317E0,1.869020968E0,2.354825771E-1,3.664257649E0
1.100502583E1,-3.153434392E0,2.011507673E0,7.069407977E-2,3.741030504E0
1.101504983E1,-3.090349367E0,2.056344123E0,-1.113064277E-1,3.713650425E0
1.102507483E1,-3.099669244E0,2.009995876E0,-2.087162896E-1,3.700215579E0
1.103509883E1,-3.098875192E0,1.906253698E0,-1.556669140E-1,3.641574221E0
1.104512383E1,-2.980967842E0,1.720212546E0,-6.258852325E-2,3.442269281E0
1.105514783E1,-2.723900269E0,1.453074020E0,5.676835097E-2,3.087762852E0
1.106517283E1,-2.432297870E0,1.219313448E0,2.077037711E-1,2.728724806E0
1.107519683E1,-2.107824179E0,1.007763232E0,4.005320064E-1,2.370429368E0
1.108522183E1,-1.791859356E0,8.717795080E-1,6.275349513E-1,2.089152837E0
1.109524583E1,-1.563007522E0,8.201956639E-1,8.107328955E-1,1.942421496E0
1.110527083E1,-1.338011926E0,7.908692461E-1,9.594895700E-1,1.826573380E0
1.111529483E1,-1.100612047E0,7.102905214E-1,1.021999814E0,1.661428037E0
1.112531983E1,-9.721165591E-1,5.410668379E-1,9.834771144E-1,1.484921265E0
1.113534383E1,-9.208382320E-1,2.748740995E-1,9.000326693E-1,1.316646356E0
1.114536883E1,-8.517358375E-1,-3.864073992E-2,8.186041979E-1,1.181972875E0
1.115539283E1,-6.835371709E-1,-3.902519435E-1,6.694931822E-1,1.033315423E0
1.116541783E1,-4.931126529E-1,-6.091711128E-1,6.280446824E-1,1.004335430E0
1.117544283E1,-1.794615734E-1,-8.794984174E-1,5.826118898E-1,1.070121739E0
1.118546683E1,3.059883034E-1,-1.106307235E0,4.669679245E-1,1.239194731E0
1.119549646E1,7.163716257E-1,-1.256101205E0,2.674960097E-1,1.470555221E0
1.120552046E1,9.714681029E-1,-1.415025896E0,1.318770055E-1,1.721464523E0
1.121554546E1,1.186319949E0,-1.655439430E0,5.954928674E-2,2.037493765E0
1.122556946E1,1.434997938E0,-1.903700219E0,1.267552100E-2,2.383999638E0
1.123559446E1,1.584656838E0,-2.020543960E0,-1.099172024E-1,2.570178395E0
1.124561846E1,1.764989061E0,-1.971873784E0,-2.112726923E-1,2.654827444E0
1.125564346E1,2.168511845E0,-2.142680893E0,-3.592528566E-1,3.069623373E0
1.126566746E1,2.701415386E0,-2.601795788E0,-4.695430382E-1,3.779875272E0
1.127569246E1,3.066022026E0,-2.885137825E0,-2.749969641E-1,4.219020581E0
1.128571646E1,3.079553652E0,-2.626745857E0,-5.702431284E-2,4.048048452E0
1.129574146E1,2.720921112E0,-2.039528700E0,4.314550795E-2,3.400727945E0
1.130576546E1,2.272490543E0,-1.535303706E0,1.019170419E-1,2.744404821E0
1.131579046E1,1.799838467E0,-1.118748356E0,2.234618711E-1,2.130950867E0
1.132581446E1,1.191999934E0,-5.304383540E-1,2.976093165E-1,1.338207755E0
1.133583946E1,6.123052204E-1,8.588390350E-3,2.086871266E-1,6.469480351E-1
1.134586346E1,2.519535989E-1,1.215633211E-1,1.402864710E-1,3.129513556E-1
1.135588846E1,1.099539667E-1,-1.937521684E-1,1.408419200E-1,2.635644589E-1
1.136591246E1,1.614077103E-1,-7.337603679E-1,1.819092178E-1,7.730120892E-1
1.137593746E1,5.191339320E-1,-1.332060045E0,1.741523381E-1,1.440212845E0
1.138596146E1,9.867644191E-1,-1.858522292E0,1.996940359E-1,2.113690336E0
1.139598646E1,1.393852251E0,-2.267195889E0,2.397486325E-1,2.672167791E0
1.140601046E1,1.623892824E0,-2.438130175E0,2.335250024E-1,2.938714103E0
1.141603546E1,1.586636705E0,-2.358072730E0,2.040293077E-1,2.849482583E0
1.142605946E1,1.290485172E0,-2.076709098E0,2.013992301E-1,2.453290506E0
1.143608446E1,8.528813070E-1,-1.643097419E0,1.896053962E-1,1.860947570E0
1.144610846E1,3.040563834E-1,-1.172954676E0,1.628870559E-1,1.222622243E0
1.145613346E1,-3.768162113E-1,-6.889478919E-1,1.406536031E-1,7.977612995E-1
1.146615746E1,-9.398282343E-1,-1.512703925E-1,1.980440247E-1,9.723071929E-1
1.147618246E1,-1.309923071E0,2.903698057E-1,2.487710325E-1,1.364587888E0
1.148620646E1,-1.682929822E0,6.228395641E-1,2.648824505E-1,1.813930710E0
1.149623146E1,-2.116763987E0,9.841036436E-1,2.501790055E-1,2.347709371E0
1.150625546E1,-2.462710993E0,1.304167365E0,1.778464993E-1,2.792387388E0
1.151628046E1,-2.819140302E0,1.636575435E0,2.568206750E-2,3.259845206E0
1.152630446E1,-3.288436661E0,2.051022864E0,-2.337786984E-1,3.882674715E0
1.153632946E1,-3.602185974E0,2.375602975E0,-5.282842763E-1,4.347219520E0
1.154635346E1,-3.813946981E0,2.556256795E0,-7.711085808E-1,4.655668462E0
1.155637846E1,-3.863233747E0,2.636077721E0,-9.033386850E-1,4.763349821E0
1.156640346E1,-3.807968203E0,2.549143657E0,-9.628200710E-1,4.682496953E0
1.157642746E1,-3.760290592E0,2.272146726E0,-1.471437786E0,4.633310397E0
1.158645246E1,-3.545397815E0,2.176690054E0,-1.710821625E0,4.498303668E0
1.159647646E1,-3.191262369E0,2.058591793E0,-1.453654064E0,4.066333214E0
1.160650146E1,-2.695060047E0,1.779367949E0,-9.481260180E-1,3.365775082E0
1.161652546E1,-2.155249776E0,1.383265282E0,-5.799303567E-1,2.625803430E0
1.162655046E1,-1.670675227E0,1.090476483E0,-3.833528868E-1,2.031564449E0
1.163657446E1,-1.183106904E0,8.876111367E-1,-1.719817420E-1,1.489017527E0
1.164659946E1,-6.161754924E-1,7.664044958E-1,-9.824959517E-2,9.882818786E-1
1.165662346E1,-2.297259933E-1,7.887733117E-1,-3.716015182E-2,8.223857040E-1
1.166664846E1,-7.863277137E-2,8.981299853E-1,1.726741985E-1,9.179525925E-1
1.167667246E1,2.247318864E-2,1.035629016E0,3.769875348E-1,1.102339378E0
1.168669746E1,1.252602232E-1,1.194037689E0,4.278512943E-1,1.274548099E0
1.169672146E1,2.732824874E-1,1.310387925E0,3.264325082E-1,1.377809136E0
1.170674646E1,5.215160877E-1,1.317514511E0,1.586057977E-1,1.425825837E0
1.171677046E1,9.335459858E-1,1.074703327E0,-6.014204822E-2,1.424820134E0
1.172679546E1,1.376940349E0,9.157575864E-1,-2.728111287E-1,1.676007933E0
1.173681946E1,1.840312309E0,7.438301504E-1,-4.868905576E-1,2.043794290E0
1.174684446E1,2.273002174E0,5.562140501E-1,-6.560225129E-1,2.430283623E0
1.175686846E1,2.733580919E0,1.778053495E-1,-7.399007484E-1,2.837522247E0
1.176689346E1,3.132668590E0,-1.541264650E-1,-7.355831643E-1,3.221560189E0
1.177691746E1,3.427305694E0,-3.766682768E-1,-7.084790540E-1,3.519978108E0
1.178694246E1,3.545195501E0,-5.168333450E-1,-6.301637864E-1,3.637668793E0
1.179696646E1,3.483757637E0,-5.226551253E-1,-5.983736444E-1,3.573203979E0
1.180699146E1,3.673741275E0,-8.947842085E-1,-5.786626804E-1,3.825161988E0
1.181701546E1,3.956161791E0,-1.525320463E0,-5.118629193E-1,4.270810494E0
1.182704046E1,3.793149020E0,-1.753068928E0,-4.288125034E-1,4.200608327E0
1.183706446E1,3.154143659E0,-1.355971649E0,-2.703998101E-1,3.443892767E0
1.184708946E1,2.441984367E0,-7.606005496E-1,2.641779341E-2,2.557830867E0
1.185711346E1,2.020487827E0,-5.204133028E-1,3.114449982E-1,2.109549490E0
1.186713846E1,1.721742470E0,-4.760042846E-1,4.162527939E-1,1.834187449E0
1.187716246E1,1.308637269E0,-2.291629064E-1,4.552454631E-1,1.404384410E0
1.188718746E1,8.992713618E-1,1.186709958E-1,3.949864705E-1,9.893361913E-1
1.189721146E1,6.965682757E-1,1.465300548E-1,2.762587202E-1,7.635425988E-1
1.190723646E1,6.946574056E-1,-2.739835685E-1,2.216410482E-1,7.789355951E-1
1.191726046E1,8.561949241E-1,-8.509692675E-1,1.323435585E-1,1.214385960E0
1.192728546E1,1.186559100E0,-1.394524680E0,-9.424659133E-2,1.833440482E0
1.193730946E1,1.583054116E0,-1.906463029E0,-3.675933981E-1,2.505151995E0
1.194733446E1,1.996328301E0,-2.256846609E0,-5.093801916E-1,3.055838917E0
1.195735846E1,2.363480819E0,-2.499149964E0,-4.624948410E-1,3.470690652E0
1.196738346E1,2.477010359E0,-2.537096639E0,-3.295115789E-1,3.561041639E0
1.197740746E1,2.279706591E0,-2.268157171E0,-1.902823576E-1,3.221460301E0
1.198743246E1,1.970625696E0,-1.944375790E0,-3.480021559E-2,2.768605046E0
1.199745646E1,1.605222664E0,-1.731282202E0,1.226230558E-1,2.364130766E0
1.200748146E1,1.015441504E0,-1.385129082E0,2.277596477E-1,1.732506415E0
1.201750546E1,2.892436320E-1,-9.254879379E-1,2.759978613E-1,1.008149107E0
1.202753046E1,-4.319952160E-1,-3.985669765E-1,3.536185892E-1,6.859457763E-1
1.203755446E1,-1.090968234E0,1.077676928E-1,4.351697425E-1,1.179490682E0
1.204757946E1,-1.742908806E0,5.397588158E-1,4.678602827E-1,1.883603973E0
1.205760346E1,-2.356444865E0,9.603227252E-1,3.948870679E-1,2.575070472E0
1.206762846E1,-2.901886005E0,1.343649226E0,2.588680045E-1,3.208324839E0
1.207765246E1,-3.373960961E0,1.664964544E0,1.319436272E-1,3.764721585E0
1.208767746E1,-3.635551940E0,1.873419244E0,8.443379402E-4,4.089857979E0
1.209770146E1,-3.788987557E0,1.946945057E0,-1.634507275E-1,4.263066725E0
1.210772646E1,-3.915234205E0,1.915565974E0,-3.552090684E-1,4.373171088E0
1.211775046E1,-4.029019268E0,1.892633487E0,-5.785106528E-1,4.488845325E0
1.212777546E1,-4.049765189E0,1.837899747E0,-7.209991121E-1,4.505364945E0
1.213779946E1,-4.012942933E0,1.747807018E0,-7.896734905E-1,4.447710037E0
1.214782446E1,-3.953580830E0,1.677000453E0,-8.370967484E-1,4.375370026E0
1.215784846E1,-3.795126548E0,1.539948442E0,-8.563481212E-1,4.184227387E0
1.216787346E1,-3.531374438E0,1.196138594E0,-6.642881370E-1,3.787166709E0
1.217789746E1,-3.290162759E0,7.244355208E-1,-3.665548230E-1,3.388855300E0
1.218792246E1,-3.071916604E0,3.189936805E-1,-1.484608054E-1,3.092000841E0
1.219794604E1,-2.930624485E0,4.822052568E-2,1.500870623E-2,2.931059596E0
1.220797104E1,-2.796874105E0,-1.328364605E-1,2.496247260E-1,2.811131940E0
1.221799504E1,-2.657425613E0,-3.335696197E-1,4.997826449E-1,2.724511382E0
1.222802004E1,-2.528123209E0,-5.092609084E-1,6.555360246E-1,2.660917345E0
1.223804404E1,-2.328322096E0,-5.541540760E-1,6.696699142E-1,2.485282342E0
1.224806904E1,-1.901826187E0,-6.133542109E-1,5.298349214E-1,2.067334341E0
1.225809304E1,-1.387419144E0,-7.846428385E-1,4.587539021E-1,1.658629376E0
1.226811804E1,-8.327616227E-1,-9.530113667E-1,3.511582636E-1,1.313405768E0
1.227814204E1,-1.369838905E-1,-1.031907263E0,1.958021291E-1,1.059214643E0
1.228816704E1,5.842438477E-1,-1.129036531E0,-1.018234134E-2,1.271285980E0
1.229819104E1,1.195284900E0,-1.257759768E0,-3.369399548E-2,1.735454094E0
1.230821604E1,1.780779467E0,-1.440740196E0,4.121936202E-2,2.290983819E0
1.231824004E1,2.279625315E0,-1.669088585E0,-2.790773705E-2,2.825478212E0
1.232826504E1,2.644047183E0,-1.842024081E0,-1.004574307E-1,3.223992853E0
1.233828904E1,2.668466325E0,-1.776799852E0,-6.452972576E-2,3.206539307E0
1.234831404E1,2.486889229E0,-1.486419814E0,-7.692940436E-2,2.898271905E0
1.235833804E1,2.483868558E0,-1.708519284E0,-1.501412221E-1,3.018473711E0
1.236836304E1,2.746483970E0,-2.413813944E0,-8.444658481E-2,3.657431227E0
1.237838704E1,2.895342970E0,-2.851413132E0,4.411724210E-2,4.063928407E0
1.238841204E1,2.574387549E0,-2.606674120E0,2.260850783E-1,3.670604267E0
1.239843604E1,1.982454028E0,-1.848154010E0,3.906770360E-1,2.738325357E0
1.240846104E1,1.320143420E0,-1.048327706E0,4.893803751E-1,1.755352608E0
1.241848504E1,5.127335697E-1,-3.268616939E-1,6.229904953E-1,8.705466316E-1
1.242851004E1,-2.998656839E-1,3.121039063E-1,6.439690626E-1,7.759023329E-1
1.243853404E1,-6.520066452E-1,5.892578351E-1,4.680872277E-1,9.957123653E-1
1.244855904E1,-3.377690899E-1,-3.891877502E-2,2.174065677E-1,4.035693805E-1
1.245858304E1,4.080532068E-1,-1.185629685E0,5.986269750E-2,1.255312197E0
1.246860804E1,1.062562460E0,-2.028294152E0,-1.825138199E-1,2.297025782E0
1.247863204E1,1.555539458E0,-2.426157416E0,-2.796688163E-1,2.895540962E0
1.248865704E1,1.958203286E0,-2.634552182E0,-2.260217822E-1,3.290366417E0
1.249868104E1,2.316366295E0,-2.762760279E0,-1.068204439E-1,3.606911113E0
1.250870604E1,2.337961231E0,-2.667299221E0,1.864443183E-2,3.546955803E0
1.251873004E1,2.089418314E0,-2.446452225E0,6.968126893E-2,3.218020021E0
1.252875504E1,1.833182214E0,-2.378509625E0,1.174834994E-1,3.005273272E0
1.253877904E1,1.534542106E0,-2.231725509E0,1.096716193E-1,2.710617289E0
1.254880404E1,1.048752506E0,-1.815131274E0,-1.344983853E-2,2.096369305E0
1.255882804E1,3.846392012E-1,-1.212436245E0,-6.722200312E-2,1.273761266E0
1.256885304E1,-3.537775970E-1,-5.181229484E-1,-5.798099041E-2,6.300569601E-1
1.257887704E1,-1.094758399E0,2.219491965E-1,-1.035413253E-1,1.121819150E0
1.258890204E1,-1.795575262E0,8.911045557E-1,-2.462285900E-1,2.019600547E0
1.259892604E1,-2.435191657E0,1.546954868E0,-3.776916126E-1,2.909618312E0
1.260895104E1,-2.940217427E0,2.137880329E0,-4.957596874E-1,3.668949235E0
1.261897504E1,-3.286234599E0,2.575644116E0,-7.076686299E-1,4.234864265E0
1.262900004E1,-3.540816522E0,2.912032970E0,-8.422703648E-1,4.661194807E0
1.263902404E1,-3.594312113E0,3.202219174E0,-9.329560018E-1,4.903436968E0
1.264904904E1,-3.446477544E0,3.246317997E0,-1.087321326E0,4.857885926E0
1.265907304E1,-3.202163917E0,3.173932098E0,-1.241064506E0,4.676316908E0
1.266909804E1,-2.968181151E0,3.095915916E0,-1.339041620E0,4.493086597E0
1.267912204E1,-2.743693678E0,2.930691143E0,-1.332196870E0,4.229840905E0
1.268914704E1,-2.423815899E0,2.655519421E0,-1.276673903E0,3.815306430E0
1.269917104E1,-2.141833339E0,2.382445094E0,-1.193855256E0,3.418886522E0
1.270919604E1,-1.984500554E0,2.178259739E0,-1.066811632E0,3.133870609E0
1.271922004E1,-1.846626717E0,2.041232286E0,-9.194115114E-1,2.902064266E0
1.272924504E1,-1.547042284E0,1.901872965E0,-7.655011010E-1,2.568355999E0
1.273926904E1,-1.177783014E0,1.726175829E0,-6.038396581E-1,2.175196118E0
1.274929404E1,-8.298631579E-1,1.651418007E0,-3.612175941E-1,1.883170849E0
1.275931804E1,-4.971969330E-1,1.680573686E0,-2.083538353E-1,1.764920402E0
1.276934304E1,-1.088991290E-1,1.556708316E0,-1.718180931E-1,1.569943075E0
1.277936704E1,3.356360257E-1,1.335481543E0,-2.285991983E-1,1.395858190E0
1.278939204E1,7.989185232E-1,1.097318895E0,-3.083388476E-1,1.391923995E0
1.279941604E1,1.274618168E0,8.060416013E-1,-4.170865337E-1,1.564709466E0
1.280944104E1,1.695004907E0,4.748178846E-1,-6.039495127E-1,1.860980567E0
1.281946504E1,1.972186317E0,2.070417202E-1,-6.967507088E-1,2.101867430E0
1.282949004E1,2.089770316E0,6.082507610E-2,-6.952830577E-1,2.203238115E0
1.283951404E1,2.163990194E0,-5.266060889E-2,-6.686057210E-1,2.265537532E0
1.284953904E1,2.331111218E0,-2.110979337E-1,-6.510032630E-1,2.429495235E0
1.285956304E1,2.559618067E0,-4.328524178E-1,-5.979058671E-1,2.663925166E0
1.286958804E1,2.754247903E0,-6.546226895E-1,-6.152873003E-1,2.897065901E0
1.287961204E1,2.747929986E0,-6.334809119E-1,-6.532649660E-1,2.894680015E0
1.288963704E1,2.614207672E0,-4.737881899E-1,-6.536520517E-1,2.736022297E0
1.289966104E1,2.698297065E0,-5.797701430E-1,-7.147741663E-1,2.850937141E0
1.290968604E1,3.052403861E0,-1.155688140E0,-7.234362316E-1,3.343074092E0
1.291971004E1,3.292827920E0,-1.679950081E0,-6.745500004E-1,3.757654280E0
1.292973504E1,3.277301808E0,-1.823283463E0,-5.789468551E-1,3.794766025E0
1.293975904E1,3.004169009E0,-1.582085817E0,-4.932921624E-1,3.430942163E0
1.294978404E1,2.766021856E0,-1.265841497E0,-3.372310730E-1,3.060548382E0
1.295980804E1,2.470320559E0,-1.112417575E0,-7.046943706E-2,2.710151743E0
1.296983204E1,1.972400910E0,-8.148451692E-1,1.003195826E-1,2.136446119E0
1.297985704E1,1.355217943E0,-3.009263688E-1,1.369511827E-1,1.394965225E0
1.298988104E1,8.589618266E-1,2.848237216E-2,1.540320690E-1,8.731280223E-1
1.299990604E1,6.893247449E-1,-2.192208856E-1,1.561510634E-1,7.400064563E-1
1.300993004E1,8.200831050E-1,-9.550888824E-1,1.829032445E-1,1.272078877E0
1.301995504E1,9.862796849E-1,-1.609193509E0,1.768022597E-1,1.895655666E0
1.302997904E1,1.176814715E0,-2.074355886E0,1.678290860E-1,2.390818232E0
1.304000404E1,1.576841449E0,-2.541199923E0,1.713117242E-1,2.995575689E0
1.305002804E1,2.067294788E0,-2.821851656E0,1.783961741E-1,3.502624688E0
1.306005304E1,2.276075470E0,-2.693978897E0,1.376668819E-1,3.529446701E0
1.307007704E1,1.971247839E0,-2.279474457E0,1.494887459E-1,3.017311507E0
1.308010204E1,1.621314787E0,-1.696544479E0,1.008831811E-1,2.348851256E0
1.309012604E1,1.387282904E0,-1.382161328E0,-1.473030567E-2,1.958351545E0
1.310015104E1,9.616705084E-1,-1.066553185E0,-6.586303711E-2,1.437596537E0
1.311017504E1,3.814010131E-1,-5.896478444E-1,-8.328196563E-2,7.071684375E-1
1.312020004E1,-3.014099336E-1,-6.024035454E-2,-4.436867237E-2,3.105566413E-1
1.313022404E1,-9.987184668E-1,4.101517725E-1,1.836961269E-2,1.079815028E0
1.314024904E1,-1.630429426E0,7.792429349E-1,5.911535025E-2,1.808041562E0
1.315027304E1,-2.214720637E0,1.111385249E0,1.091347353E-1,2.480337691E0
1.316029804E1,-2.751555260E0,1.366885477E0,1.667052511E-1,3.076885259E0
1.317032204E1,-3.186054254E0,1.577274143E0,2.480295324E-1,3.563741584E0
1.318034704E1,-3.508498376E0,1.722820404E0,2.928554936E-1,3.919621836E0
1.319037104E1,-3.690770706E0,1.807780740E0,2.604759157E-1,4.117973690E0
1.320039142E1,-3.799422498E0,1.849378124E0,2.481008685E-1,4.232890833E0
1.321041542E1,-3.793346071E0,1.766816024E0,2.597052161E-1,4.192679344E0
1.322044042E1,-3.541319382E0,1.543371110E0,1.832669779E-1,3.867366563E0
1.323046442E1,-3.254186010E0,1.294337903E0,1.356776956E-1,3.504774691E0
1.324048942E1,-3.073669599E0,1.039754811E0,1.293555399E-1,3.247347799E0
1.325051342E1,-3.018898146E0,8.295257735E-1,1.782745155E-1,3.135863649E0
1.326053842E1,-2.994971339E0,6.759015843E-1,1.876886423E-1,3.076023943E0
1.327056242E1,-2.957096000E0,5.303538617E-1,1.032465526E-1,3.006052531E0
1.328058742E1,-2.913143649E0,3.860565662E-1,-1.427451521E-4,2.938612872E0
1.329061142E1,-2.771763822E0,2.515548187E-1,4.896531478E-3,2.783159803E0
1.330063642E1,-2.554702313E0,1.847120807E-1,6.870719589E-2,2.562292555E0
1.331066042E1,-2.244636161E0,1.269927531E-1,1.500021315E-1,2.253224200E0
1.332068542E1,-1.897615022E0,-6.249387145E-2,2.447679555E-1,1.914356186E0
1.333070942E1,-1.510956193E0,-2.299049181E-1,4.054997277E-1,1.581225764E0
1.334073442E1,-1.096271074E0,-4.419600409E-1,5.175125722E-1,1.290332596E0
1.335075842E1,-7.355984402E-1,-7.064342827E-1,5.189380503E-1,1.144312528E0
1.336078342E1,-4.496625781E-1,-9.028673995E-1,4.575376812E-1,1.107567923E0
1.337080742E1,-2.217714411E-1,-1.010821034E0,4.232905392E-1,1.118086139E0
1.338083142E1,-5.465392470E-2,-1.044479654E0,4.884670401E-1,1.154350401E0
1.339085642E1,1.521246707E-1,-1.081537845E0,6.702757589E-1,1.281458395E0
1.340088042E1,5.920984125E-1,-1.272179879E0,8.352397458E-1,1.632987326E0
1.341090542E1,1.162990728E0,-1.695075073E0,9.089368093E-1,2.247663912E0
1.342092942E1,1.612616469E0,-2.022218603E0,9.077147412E-1,2.741139545E0
1.343095442E1,1.890398389E0,-2.178778094E0,9.388885868E-1,3.033511469E0
1.344097842E1,2.089284997E0,-2.346964189E0,9.749262194E-1,3.289959550E0
1.345100342E1,2.452520465E0,-2.828635011E0,8.418132587E-1,3.837275364E0
1.346102742E1,2.869749708E0,-3.450454236E0,5.060180426E-1,4.516320635E0
1.347105242E1,2.715745742E0,-3.461105816E0,1.620942465E-1,4.402363337E0
1.348107642E1,2.163634098E0,-2.729608905E0,-8.901216388E-2,3.484250343E0
1.349110142E1,1.641477156E0,-2.014039225E0,-2.788980802E-1,2.613156213E0
1.350112542E1,1.252696372E0,-1.468157790E0,-2.214141031E-1,1.942616715E0
1.351115042E1,9.348048913E-1,-9.574187055E-1,-2.664451919E-2,1.338364933E0
1.352117442E1,6.093757653E-1,-4.985827231E-1,2.098729420E-1,8.148436703E-1
1.353119942E1,3.254384816E-1,1.212566346E-2,5.536764316E-1,6.423510161E-1
1.354122342E1,1.573140746E-1,3.899823868E-1,7.076206827E-1,8.231409422E-1
1.355124842E1,1.595050263E-1,3.391320759E-1,5.666126653E-1,6.793396285E-1
1.356127242E1,4.921694970E-1,-2.610314012E-2,3.659480647E-1,6.138649475E-1
1.357129742E1,1.011185900E0,-6.917981172E-1,4.960200347E-2,1.226190001E0
1.358132142E1,1.515956731E0,-1.387115673E0,-3.430782887E-1,2.083246845E0
1.359134642E1,1.860102210E0,-1.678724504E0,-5.435793134E-1,2.563898333E0
1.360137042E1,2.049911601E0,-1.703495649E0,-7.150348791E-1,2.759585091E0
1.361139542E1,1.996991960E0,-1.621421206E0,-8.601873299E-1,2.712361676E0
1.362141942E1,1.776937262E0,-1.449250526E0,-7.905212637E-1,2.425439545E0
1.363144442E1,1.417707136E0,-1.202084627E0,-6.070941818E-1,1.955368078E0
1.364146842E1,9.890050721E-1,-9.694970065E-1,-4.437871496E-1,1.454304821E0
1.365149342E1,5.126318282E-1,-8.573591048E-1,-2.642088512E-1,1.033277476E0
1.366151742E1,-1.648914814E-2,-6.950035608E-1,-7.997938514E-2,6.997846408E-1
1.367154142E1,-6.332745051E-1,-3.919224930E-1,4.253498554E-2,7.459551356E-1
1.368156642E1,-1.365553481E0,7.363047838E-2,1.608159721E-1,1.376960251E0
1.369159042E1,-2.041060671E0,6.459378201E-1,2.423602183E-1,2.154507555E0
1.370161542E1,-2.584969255E0,1.165236644E0,2.340899165E-1,2.845108183E0
1.371163942E1,-3.008173183E0,1.609434999E0,1.643968070E-1,3.415613155E0
1.372166442E1,-3.276835200E0,2.033333575E0,5.391132832E-3,3.856439215E0
1.373168842E1,-3.438897799E0,2.329559367E0,-1.517773096E-1,4.156428908E0
1.374171342E1,-3.502448262E0,2.520246425E0,-2.445271233E-1,4.321872208E0
1.375173742E1,-3.418995046E0,2.618301893E0,-3.537612978E-1,4.320900251E0
1.376176242E1,-3.240871316E0,2.662439016E0,-4.272771708E-1,4.215968949E0
1.377178642E1,-3.002476240E0,2.635058843E0,-5.473240165E-1,4.032116350E0
1.378181142E1,-2.715714167E0,2.505925425E0,-5.556701494E-1,3.736781367E0
1.379183542E1,-2.385975058E0,2.290723915E0,-5.266084278E-1,3.349269990E0
1.380186042E1,-1.998586496E0,2.081039253E0,-4.442492259E-1,2.919320080E0
1.381188442E1,-1.596326711E0,1.855421514E0,-3.476438677E-1,2.472186122E0
1.382190942E1,-1.264483774E0,1.622599420E0,-2.236665968E-1,2.069244992E0
1.383193342E1,-1.039674704E0,1.434568167E0,-7.737510838E-2,1.773385526E0
1.384195842E1,-7.956931990E-1,1.244648264E0,3.244027935E-2,1.477609333E0
1.385198242E1,-5.986706829E-1,1.045624831E0,8.595414318E-2,1.207942874E0
1.386200742E1,-5.455808884E-1,1.038382469E0,2.052174620E-1,1.190802614E0
1.387203142E1,-5.373462546E-1,1.180692589E0,3.025887322E-1,1.332042014E0
1.388205642E1,-4.873420358E-1,1.353001263E0,3.029571799E-1,1.469659053E0
1.389208042E1,-3.373416585E-1,1.526467686E0,2.186988024E-1,1.578522144E0
1.390210442E1,-2.952785432E-2,1.581968288E0,1.054790926E-1,1.585755781E0
1.391212942E1,3.672723860E-1,1.522818439E0,2.720234357E-2,1.566717898E0
1.392215342E1,7.991401327E-1,1.451875341E0,3.644211374E-2,1.657677588E0
1.393217842E1,1.339314685E0,1.209284304E0,-5.384693585E-2,1.805278883E0
1.394220242E1,1.925427888E0,8.221705610E-1,-1.548938390E-1,2.099340155E0
1.395222742E1,2.485263703E0,3.839872366E-1,-1.311950739E-1,2.518172754E0
1.396225142E1,2.994298325E0,-2.903142571E-3,-1.248368116E-1,2.996900918E0
1.397227642E1,3.420374989E0,-2.813820505E-1,-1.534098157E-1,3.435356676E0
1.398230042E1,3.544254100E0,-4.189261043E-1,-4.311729513E-2,3.569186925E0
1.399232542E1,3.474670479E0,-4.193412566E-1,1.067456726E-1,3.501510627E0
1.400234942E1,3.453103024E0,-4.690794271E-1,2.062114155E-1,3.490913799E0
1.401237442E1,3.581280423E0,-7.753624302E-1,2.890641955E-1,3.675637969E0
1.402239842E1,3.781206082E0,-1.315658605E0,4.090010405E-1,4.024395464E0
1.403242342E1,3.633932261E0,-1.567117530E0,4.957491624E-1,3.988369123E0
1.404244742E1,3.076146480E0,-1.177767227E0,6.967413533E-1,3.366787982E0
1.405247242E1,2.529347032E0,-6.788827872E-1,8.243217516E-1,2.745539036E0
1.406249642E1,2.236941226E0,-5.660946751E-1,9.031071353E-1,2.477896633E0
1.407252142E1,2.082936090E0,-6.497057658E-1,1.062512759E0,2.426864994E0
1.408254542E1,1.887843155E0,-5.413685542E-1,1.141064254E0,2.271356274E0
1.409256942E1,1.599402346E0,-1.229143202E-1,1.116883678E0,1.954641897E0
1.410259442E1,1.322982827E0,3.396665114E-1,1.063208505E0,1.730915719E0
1.411261842E1,1.172184305E0,4.615160537E-1,9.498228800E-1,1.577712463E0
1.412264342E1,1.236310719E0,8.086816192E-2,8.670520341E-1,1.512211323E0
1.413266742E1,1.391209309E0,-5.182469094E-1,8.566241097E-1,1.714015188E0
1.414269242E1,1.546447622E0,-9.574710381E-1,8.432340590E-1,2.004817876E0
1.415271642E1,1.875739419E0,-1.375871478E0,7.449305233E-1,2.442609706E0
1.416274142E1,2.355803425E0,-1.914186031E0,6.030677891E-1,3.094771187E0
1.417276542E1,2.797662309E0,-2.186443502E0,3.879908252E-1,3.571832368E0
1.418279042E1,2.939630951E0,-2.094929899E0,9.454004847E-2,3.610969293E0
1.419281442E1,2.681355928E0,-1.802925212E0,-9.692571245E-2,3.232584651E0
1.420283971E1,2.167507879E0,-1.527722499E0,-1.742470264E-3,2.651797404E0
1.421286371E1,1.579831715E0,-1.254547600E0,1.695505428E-1,2.024476554E0
1.422288871E1,9.726012933E-1,-9.690251362E-1,2.488832259E-1,1.395315681E0
1.423291271E1,2.805014598E-1,-6.780191535E-1,3.140364110E-1,7.981290052E-1
1.424293771E1,-4.429938287E-1,-3.519287074E-1,4.806294322E-1,7.423624441E-1
1.425296171E1,-1.067045521E0,-5.240040779E-2,6.114924574E-1,1.230956933E0
1.426298671E1,-1.585545614E0,1.452413285E-1,6.605834873E-1,1.723780868E0
1.427301071E1,-2.027693351E0,3.379620481E-1,7.012355232E-1,2.171978345E0
1.428303571E1,-2.406397628E0,5.203875750E-1,7.291407752E-1,2.567722540E0
1.429305971E1,-2.766841636E0,7.327777433E-1,7.334350435E-1,2.954708585E0
1.430308371E1,-3.032560750E0,9.440610337E-1,6.874431840E-1,3.249654453E0
1.431310871E1,-3.242705002E0,1.099371560E0,5.586513157E-1,3.469271516E0
1.432313271E1,-3.412924467E0,1.211591323E0,4.934021632E-1,3.655058501E0
1.433315771E1,-3.535096775E0,1.277354080E0,3.871347197E-1,3.778679127E0
1.434318171E1,-3.659379929E0,1.240252327E0,1.862828621E-1,3.868331501E0
1.435320671E1,-3.751826162E0,1.152394989E0,4.572296061E-2,3.925086541E0
1.436323071E1,-3.831884485E0,1.001483907E0,-8.826598607E-2,3.961577919E0
1.437325571E1,-3.898843875E0,7.656443578E-1,-1.742025876E-1,3.977127278E0
1.438327971E1,-3.934509552E0,5.590212983E-1,-1.957074773E-1,3.978840489E0
1.439330471E1,-4.030996796E0,4.365472734E-1,-2.021371488E-1,4.059601965E0
1.440332871E1,-4.070973040E0,3.708722243E-1,-1.991339457E-1,4.092679077E0
1.441335371E1,-4.045682078E0,2.902692336E-1,-1.496958105E-1,4.058843251E0
1.442337771E1,-3.988050751E0,1.822083029E-1,-4.376180448E-2,3.992450846E0
1.443340271E1,-3.831110898E0,1.372280118E-1,4.496859670E-2,3.833831558E0
1.444342671E1,-3.506608556E0,-3.161150962E-2,1.083267597E-1,3.508423797E0
1.445345071E1,-3.046706918E0,-3.249382523E-1,3.172238745E-2,3.064149837E0
1.446347571E1,-2.610362543E0,-6.269279373E-1,-1.325188836E-1,2.687860209E0
1.447349971E1,-2.225480098E0,-8.513551837E-1,-3.119430348E-1,2.403097121E0
1.448352471E1,-1.897912645E0,-1.226966869E0,-4.445287228E-1,2.303285890E0
1.449354871E1,-1.565045276E0,-1.733507945E0,-4.572334798E-1,2.379806498E0
1.450357371E1,-1.153337560E0,-2.115873456E0,-3.295923436E-1,2.432229249E0
1.451359771E1,-8.115321368E-1,-2.423794264E0,-2.053612304E-1,2.564280850E0
1.452362271E1,-3.598142624E-1,-2.713743655E0,-1.404080200E-1,2.741091998E0
1.453364671E1,1.849673116E-1,-2.952104816E0,-6.647940673E-2,2.958640780E0
1.454367171E1,7.637942988E-1,-3.046445548E0,-4.102289557E-2,3.141002242E0
1.455369571E1,1.274611736E0,-2.964701765E0,-2.920574583E-2,3.227219331E0
1.456372071E1,1.699480366E0,-2.744243901E0,-2.561665177E-2,3.227965972E0
1.457374471E1,2.379188195E0,-2.782160756E0,-5.562573195E-2,3.661154075E0
1.458376971E1,3.210584493E0,-3.224704349E0,-4.352901220E-2,4.550655524E0
1.459379371E1,3.669711374E0,-3.546867805E0,2.667862308E-1,5.110599543E0
1.460381771E1,3.511475778E0,-3.117501790E0,7.410948229E-1,4.753788078E0
1.461384271E1,3.249664943E0,-2.300372698E0,1.020166200E0,4.110082222E0
1.462386671E1,3.040945657E0,-1.714412692E0,1.179498076E0,3.684803533E0
1.463389171E1,2.680334419E0,-1.193472848E0,1.237832165E0,3.184462043E0
1.464391571E1,2.207856590E0,-6.207208255E-1,1.069876889E0,2.530723537E0
1.465394071E1,1.625305511E0,-7.554544151E-2,8.394135614E-1,1.830830480E0
1.466396471E1,9.875999862E-1,3.548903221E-1,7.461457939E-1,1.287646853E0
1.467398971E1,5.814050245E-1,5.094614679E-1,7.239133644E-1,1.059071928E0
1.468401371E1,4.774707663E-1,2.612214357E-1,6.786629319E-1,8.699415764E-1
1.469403871E1,7.046988291E-1,-3.276572075E-1,5.652292871E-1,9.609598495E-1
1.470406271E1,1.158746819E0,-1.065713525E0,4.845470667E-1,1.647187108E0
1.471408771E1,1.699677417E0,-1.614140838E0,4.986470425E-1,2.396456308E0
1.472411171E1,2.153273417E0,-1.959397872E0,4.038695240E-1,2.939206869E0
1.473413671E1,2.270586104E0,-2.054037981E0,2.577755253E-1,3.072634294E0
1.474416071E1,1.974039885E0,-1.916055971E0,2.429624815E-1,2.761726764E0
1.475418471E1,1.583482717E0,-1.651443442E0,4.427033682E-1,2.330379632E0
1.476420971E1,1.184753480E0,-1.413269100E0,5.683188097E-1,1.929755587E0
1.477423371E1,6.433843410E-1,-1.134003741E0,6.232501848E-1,1.445111998E0
1.478425871E1,3.007807732E-3,-7.018486038E-1,6.928005492E-1,9.861912140E-1
1.479428271E1,-6.734267503E-1,-2.141352698E-1,7.127126574E-1,1.003651749E0
1.480430771E1,-1.319009060E0,2.472071216E-1,7.100988058E-1,1.518267623E0
1.481433171E1,-1.950728205E0,6.944638628E-1,6.671861632E-1,2.175490281E0
1.482435671E1,-2.557035937E0,1.193217909E0,5.138393513E-1,2.868140973E0
1.483438071E1,-3.072873209E0,1.723300168E0,3.297877137E-1,3.538512846E0
1.484440571E1,-3.471279094E0,2.161689899E0,1.501798868E-1,4.092094301E0
1.485442971E1,-3.752826036E0,2.465489590E0,-7.486065947E-2,4.490873667E0
1.486445471E1,-3.919766382E0,2.726149693E0,-2.571535277E-1,4.781483930E0
1.487447871E1,-3.935677240E0,2.886803112E0,-4.376639820E-1,4.900483375E0
1.488450371E1,-3.767695506E0,2.890131932E0,-5.600159097E-1,4.781423410E0
1.489452771E1,-3.405634743E0,2.737572813E0,-6.359724104E-1,4.415553625E0
1.490455171E1,-2.923135371E0,2.457787637E0,-6.513493451E-1,3.874234949E0
1.491457671E1,-2.528017960E0,2.206054478E0,-4.972074580E-1,3.391867689E0
1.492460071E1,-2.199750595E0,2.016262629E0,-3.118051136E-1,3.000240007E0
1.493462571E1,-1.837025589E0,1.796764001E0,-2.351072589E-1,2.580368057E0
1.494464971E1,-1.433498127E0,1.531471733E0,-1.349642622E-1,2.102031851E0
1.495467471E1,-1.109313288E0,1.309064115E0,-2.774028741E-2,1.716098585E0
1.496469871E1,-7.868913853E-1,1.135749720E0,2.193531789E-2,1.381885175E0
1.497472371E1,-4.283845603E-1,1.029552004E0,6.475908279E-2,1.116997941E0
1.498474771E1,-9.243746281E-2,1.011155494E0,7.005198240E-2,1.017785537E0
1.499477271E1,1.979124624E-1,1.122354333E0,4.978326716E-2,1.140757190E0
1.500479671E1,3.969943678E-1,1.297336940E0,2.125002421E-2,1.356885856E0
1.501482171E1,5.671471739E-1,1.478090748E0,-1.125121236E-1,1.587156940E0
1.502484571E1,6.993000948E-1,1.588918288E0,-3.548931726E-1,1.771900424E0
1.503486971E1,7.951266038E-1,1.690078043E0,-5.603901315E-1,1.950032617E0
1.504489471E1,9.229075617E-1,1.770169694E0,-7.786153094E-1,2.142778783E0
1.505491871E1,1.144842140E0,1.658946882E0,-9.680041393E-1,2.236023322E0
1.506494371E1,1.454578509E0,1.491608341E0,-1.069089780E0,2.341718821E0
1.507496771E1,1.748167791E0,1.221196252E0,-1.173628641E0,2.434094307E0
1.508499271E1,2.111525466E0,7.891530883E-1,-1.128351165E0,2.520809145E0
1.509501671E1,2.498768433E0,2.742490321E-1,-9.494158407E-1,2.687088880E0
1.510504171E1,2.871562344E0,-2.288313693E-1,-7.573640426E-1,2.978562470E0
1.511506571E1,3.116397543E0,-5.359820992E-1,-5.939203318E-1,3.217444921E0
1.512509071E1,3.283988684E0,-7.205102849E-1,-4.127024011E-1,3.387335238E0
1.513511471E1,3.630561926E0,-1.161206743E0,-2.565571117E-1,3.820366809E0
1.514513871E1,4.065760247E0,-1.738682438E0,-1.919700102E-1,4.426090317E0
1.515516371E1,4.127971698E0,-2.021260244E0,-6.595659256E-2,4.596737276E0
1.516518771E1,3.697785026E0,-1.846770558E0,1.169209973E-1,4.134954185E0
1.517521271E1,3.220099082E0,-1.511777726E0,9.082246184E-2,3.558477021E0
1.518523671E1,2.895754614E0,-1.469523407E0,1.811116576E-2,3.247340734E0
1.519526217E1,2.460461569E0,-1.576553181E0,1.365957085E-1,2.925414407E0
1.520528617E1,1.886663772E0,-1.359529679E0,3.402377113E-1,2.350230380E0
1.521531117E1,1.288004783E0,-8.361927688E-1,4.546034022E-1,1.601511449E0
1.522533517E1,7.947716779E-1,-4.769585502E-1,5.977258094E-1,1.102917777E0
1.523536017E1,6.118222404E-1,-4.158873063E-1,7.360581044E-1,1.043585281E0
1.524538417E1,7.330964166E-1,-8.183885819E-1,8.000780261E-1,1.359159694E0
1.525540917E1,9.842851996E-1,-1.403265098E0,8.337790382E-1,1.906084409E0
1.526543317E1,1.270961319E0,-1.857771510E0,6.890908563E-1,2.354039903E0
1.527545717E1,1.543696507E0,-2.189050190E0,3.319312298E-1,2.699095772E0
1.528548217E1,1.818915592E0,-2.493438111E0,9.157675266E-2,3.087729562E0
1.529550617E1,2.053362628E0,-2.697658550E0,-7.007266693E-3,3.390237283E0
1.530553117E1,1.947664264E0,-2.579017375E0,-1.060170364E-1,3.233568666E0
1.531555517E1,1.551665677E0,-2.338144834E0,-7.957483090E-2,2.807297596E0
1.532558017E1,1.068492122E0,-2.091112837E0,8.533192635E-2,2.349831876E0
1.533560417E1,5.765436494E-1,-1.764187408E0,2.458157766E-1,1.872213980E0
1.534562917E1,-2.224163890E-2,-1.292834584E0,3.714432049E-1,1.345320038E0
1.535565317E1,-7.207757485E-1,-7.038468897E-1,5.342309312E-1,1.140316102E0
1.536567817E1,-1.373103406E0,-1.641290045E-1,6.938937593E-1,1.547203879E0
1.537570217E1,-1.919691185E0,2.796477664E-1,8.268173432E-1,2.108801564E0
1.538572617E1,-2.416996291E0,7.119470376E-1,8.914512956E-1,2.672718666E0
1.539575117E1,-2.787829632E0,1.100828978E0,8.531017470E-1,3.116344186E0
1.540577517E1,-3.041908693E0,1.439472812E0,7.397933058E-1,3.445661709E0
1.541580017E1,-3.258290756E0,1.729176620E0,5.451651514E-1,3.728768627E0
1.542582417E1,-3.351473739E0,1.943748384E0,3.227101342E-1,3.887759745E0
1.543584917E1,-3.419976209E0,2.123214635E0,9.320114572E-2,4.026532517E0
1.544587317E1,-3.492924902E0,2.280127006E0,-1.192984021E-1,4.172976832E0
1.545589817E1,-3.529236696E0,2.350998768E0,-2.687181143E-1,4.249107705E0
1.546592217E1,-3.525700300E0,2.264946465E0,-2.771837497E-1,4.199687598E0
1.547594717E1,-3.443803613E0,2.097923381E0,-3.007316200E-1,4.043699462E0
1.548597117E1,-3.310330975E0,1.889096506E0,-3.164021214E-1,3.824537498E0
1.549599517E1,-3.287113436E0,1.687669282E0,-2.293301368E-1,3.702152706E0
1.550602017E1,-3.266063460E0,1.451211390E0,-5.278160971E-2,3.574349020E0
1.551604417E1,-3.166837379E0,1.135961974E0,1.119036477E-2,3.364430682E0
1.552606917E1,-2.976328661E0,8.009434140E-1,6.557301521E-2,3.082911363E0
1.553609317E1,-2.778426139E0,5.412179884E-1,1.753556220E-1,2.836074455E0
1.554611817E1,-2.561664008E0,3.165653318E-1,2.989260364E-1,2.598401985E0
1.555614217E1,-2.242367442E0,3.702632368E-2,4.532434130E-1,2.288014922E0
1.556616717E1,-1.762184152E0,-2.021104708E-1,5.603913009E-1,1.860155918E0
1.557619117E1,-1.233023415E0,-5.334271583E-1,5.576981099E-1,1.454619695E0
1.558621617E1,-6.482848924E-1,-8.845059729E-1,5.117541611E-1,1.210172070E0
1.559624017E1,-9.220825195E-2,-1.306403047E0,4.830443323E-1,1.395895093E0
1.560626417E1,3.863290465E-1,-1.723332328E0,4.823602080E-1,1.830791035E0
1.561628917E1,7.046157986E-1,-1.880048232E0,3.017945342E-1,2.030306558E0
1.562631317E1,9.226268953E-1,-1.880967999E0,6.791190147E-2,2.096161499E0
1.563633817E1,1.158468491E0,-1.911337268E0,-1.654048669E-1,2.241119847E0
1.564636217E1,1.440380300E0,-2.121194422E0,-3.011538255E-1,2.581638009E0
1.565638717E1,1.696961385E0,-2.367506627E0,-3.536115360E-1,2.934247210E0
1.566641117E1,1.772001627E0,-2.398581655E0,-3.513520988E-1,3.002770724E0
1.567643617E1,1.711518613E0,-2.302663929E0,-3.414645302E-1,2.889317421E0
1.568646017E1,1.761221116E0,-2.484677812E0,-2.429236706E-1,3.055247217E0
1.569648517E1,1.926006178E0,-2.908214446E0,-9.710938811E-2,3.489504448E0
1.570650917E1,1.950694292E0,-3.120719805E0,-2.518739305E-2,3.680317204E0
1.571653317E1,1.916206244E0,-3.001580739E0,-4.102406502E-2,3.561322266E0
1.572655817E1,1.852434756E0,-2.769638067E0,1.180903673E-2,3.332048769E0
1.573658217E1,1.756897100E0,-2.484990054E0,1.156403109E-1,3.045527158E0
1.574660717E1,1.629321964E0,-2.121287978E0,1.683424350E-1,2.680091775E0
1.575663117E1,1.383704993E0,-1.537721238E0,2.107254660E-1,2.079334348E0
1.576665617E1,9.619225234E-1,-7.007689154E-1,3.087002420E-1,1.229499025E0
1.577668017E1,4.735811985E-1,5.112951547E-2,3.486426453E-1,5.902923623E-1
1.578670517E1,6.052569866E-2,4.862579620E-1,2.463445111E-1,5.484485244E-1
1.579672917E1,-1.089453220E-1,4.832834834E-1,1.364518670E-1,5.138590473E-1
1.580675317E1,3.291163802E-2,-5.549826264E-2,1.997065343E-2,6.754302386E-2
1.581677817E1,3.804707211E-1,-7.145934874E-1,-1.713550667E-1,8.275049128E-1
1.582680217E1,5.998681927E-1,-1.166728853E0,-3.892877376E-1,1.368445471E0
1.583682717E1,7.589867181E-1,-1.377260191E0,-3.840578783E-1,1.618767101E0
1.584685117E1,9.787455475E-1,-1.553571285E0,-3.496190572E-1,1.869160258E0
1.585687617E1,1.103844388E0,-1.601464659E0,-3.174664608E-1,1.970773056E0
1.586690017E1,1.053187035E0,-1.539911020E0,-1.624179630E-1,1.872674150E0
1.587692517E1,7.754349357E-1,-1.321350285E0,4.297944702E-2,1.532681685E0
1.588694917E1,4.553191745E-1,-1.039474145E0,2.208412222E-1,1.156111108E0
1.589697317E1,5.737229526E-2,-7.680504870E-1,3.628958181E-1,8.514026696E-1
1.590699817E1,-4.101394933E-1,-3.572794944E-1,5.264143733E-1,7.569512095E-1
1.591702217E1,-9.025475568E-1,1.764672142E-1,6.424266402E-1,1.121804242E0
1.592704717E1,-1.339155056E0,6.586993682E-1,7.549316740E-1,1.672466130E0
1.593707117E1,-1.641426870E0,9.830590385E-1,7.251881305E-1,2.046114627E0
1.594709617E1,-1.905629801E0,1.277718946E0,5.475753006E-1,2.358777088E0
1.595712017E1,-2.182155154E0,1.629820147E0,3.731096613E-1,2.749059047E0
1.596714517E1,-2.429985881E0,1.973535855E0,1.000317534E-1,3.132041108E0
1.597716917E1,-2.617707231E0,2.262985893E0,-2.256101016E-1,3.467621118E0
1.598719317E1,-2.763714545E0,2.537268839E0,-5.180152865E-1,3.787372583E0
1.599721817E1,-2.810530862E0,2.718396285E0,-7.760471392E-1,3.986353126E0
1.600724217E1,-2.718979837E0,2.743719991E0,-9.397071970E-1,3.975411973E0
1.601726717E1,-2.532159542E0,2.661985272E0,-1.031750484E0,3.816085245E0
1.602729117E1,-2.231132601E0,2.478845800E0,-1.019239782E0,3.487331203E0
1.603731617E1,-1.836384149E0,2.154044665E0,-8.424142063E-1,2.953282387E0
1.604734017E1,-1.466888652E0,1.799778240E0,-5.079032580E-1,2.376747726E0
1.605736517E1,-1.190032346E0,1.603581351E0,-1.953086972E-1,2.006438542E0
1.606738917E1,-9.058945030E-1,1.504585651E0,2.375138998E-3,1.756254103E0
1.607741417E1,-6.726128179E-1,1.406017967E0,1.775482913E-1,1.568699437E0
1.608743817E1,-5.350459599E-1,1.461687554E0,3.441928411E-1,1.594137195E0
1.609746217E1,-3.977404726E-1,1.563671181E0,4.302287722E-1,1.669838867E0
1.610748717E1,-1.890059835E-1,1.601394492E0,4.234284604E-1,1.667177028E0
1.611751117E1,6.286926270E-3,1.656450121E0,3.734359360E-1,1.698034430E0
1.612753617E1,1.954268110E-1,1.729579493E0,2.722674108E-1,1.761750948E0
1.613756017E1,3.572514278E-1,1.802825809E0,9.591070890E-2,1.840382663E0
1.614758517E1,5.105075347E-1,1.764926496E0,-1.610252293E-1,1.844319008E0
1.615760917E1,6.841353410E-1,1.656396911E0,-4.476090360E-1,1.847172364E0
1.616763417E1,9.133456099E-1,1.479518638E0,-6.734472156E-1,1.864592919E0
1.617765817E1,1.126951414E0,1.230409709E0,-9.344411945E-1,1.912356632E0
1.618768217E1,1.332043673E0,9.225701773E-1,-1.075442122E0,1.944749813E0
1.619770708E1,1.642988661E0,5.581114715E-1,-1.061094151E0,2.033917637E0
1.620773108E1,2.085124703E0,8.642710984E-2,-9.433745706E-1,2.290233668E0
1.621775608E1,2.560775231E0,-3.610345763E-1,-6.074637258E-1,2.656487893E0
1.622778008E1,2.883057970E0,-7.096309555E-1,-2.006307598E-1,2.975878367E0
1.623780508E1,3.023846059E0,-8.377539754E-1,1.061820741E-1,3.139546360E0
1.624782908E1,3.001704408E0,-8.236294413E-1,2.161540210E-1,3.120147011E0
1.625785408E1,3.040023551E0,-1.101916561E0,2.549982440E-1,3.243607159E0
1.626787808E1,3.114477902E0,-1.578408503E0,3.640943512E-1,3.510542793E0
1.627790208E1,2.949749558E0,-1.811362744E0,4.118498770E-1,3.485925668E0
1.628792708E1,2.384317957E0,-1.554110398E0,2.637923833E-1,2.858289291E0
1.629795108E1,1.757445568E0,-1.049876341E0,8.218268909E-2,2.048806787E0
1.630797608E1,1.437710461E0,-8.343023640E-1,2.192963513E-1,1.676652228E0
1.631800008E1,1.354202866E0,-9.311965746E-1,4.494111844E-1,1.703808345E0
1.632802508E1,1.208931717E0,-8.268465793E-1,5.561415446E-1,1.566679475E0
1.633804908E1,9.656758511E-1,-4.379318941E-1,5.653707898E-1,1.201648169E0
1.634807408E1,9.182315433E-1,-2.291260689E-1,5.451593041E-1,1.092175164E0
1.635809808E1,1.103496478E0,-4.340873498E-1,4.942721558E-1,1.284695010E0
1.636812208E1,1.389740489E0,-8.888194638E-1,3.503908896E-1,1.686461515E0
1.637814708E1,1.710517570E0,-1.429678141E0,1.778325391E-1,2.236397629E0
1.638817108E1,1.999234952E0,-1.895486051E0,-7.087289494E-2,2.755872045E0
1.639819608E1,2.326141085E0,-2.262699380E0,-2.252592687E-1,3.252919084E0
1.640822008E1,2.619141553E0,-2.542938300E0,-2.008249970E-1,3.656059128E0
1.641824508E1,2.582753745E0,-2.541646065E0,-9.276845176E-2,3.624801735E0
