"Time (s)";"Linear Acceleration x (m/s^2)";"Linear Acceleration y (m/s^2)";"Linear Acceleration z (m/s^2)";"Absolute acceleration (m/s^2)"
4.475404159E-2;-5.731703907E-2;3.898093092E-1;1.985609770E0;2.024322776E0
5.473804160E-2;-1.706866568E-1;1.467294449E-1;2.230689383E0;2.242016634E0
6.472204160E-2;-1.426328856E-1;1.185818258E-1;2.135558692E0;2.143599010E0
7.470604160E-2;3.495494753E-2;3.703722873E-1;1.806960375E0;1.844858606E0
8.469004161E-2;2.579402706E-1;6.071497303E-1;1.400474222E0;1.548060731E0
9.467404161E-2;5.152034336E-1;7.607546237E-1;1.084539220E0;1.421410390E0
1.046580416E-1;8.018500248E-1;9.430149668E-1;9.664114308E-1;1.570411329E0
1.146430416E-1;1.220872316E0;1.372071372E0;1.164441422E0;2.174633966E0
1.246270416E-1;1.470401659E0;1.671043017E0;1.466667042E0;2.665629010E0
1.346110416E-1;9.770232502E-1;1.201936985E0;1.445322951E0;2.118533781E0
1.445950416E-1;8.224135128E-1;8.057293600E-1;2.083915499E0;2.380812381E0
1.545790416E-1;1.060295787E0;5.670199969E-1;3.358992088E0;3.567711687E0
1.645630416E-1;1.154780653E0;3.225160432E-1;4.324722903E0;4.487846159E0
1.745470416E-1;1.132403943E0;1.692418098E-1;4.636174845E0;4.775468425E0
1.845310417E-1;1.091953782E0;2.984775549E-1;4.516844283E0;4.656536717E0
1.945150417E-1;9.960202691E-1;6.406972530E-1;3.940018798E0;4.114158173E0
2.045000417E-1;1.010438626E0;9.956103793E-1;3.001536593E0;3.319856648E0
2.144840417E-1;1.116359183E0;1.132846870E0;2.050200453E0;2.594787420E0
2.244680417E-1;1.111168610E0;1.115991101E0;1.414047364E0;2.116521147E0
2.344520417E-1;9.072759077E-1;8.948587605E-1;1.546658122E0;2.004014251E0
2.444360417E-1;3.991955522E-1;5.202981126E-1;2.502573216E0;2.587071687E0
2.544200417E-1;-5.577395886E-2;2.738534680E-1;3.375579470E0;3.387129052E0
2.644040417E-1;-2.719241792E-1;2.009802040E-1;3.679235904E0;3.694741214E0
2.743880416E-1;-3.270093361E-1;3.445851892E-1;3.624584318E0;3.655582790E0
2.843720416E-1;-4.091717792E-1;5.995430875E-1;3.302717900E0;3.381540919E0
2.943570416E-1;-2.420779440E-1;7.088029897E-1;3.326452918E0;3.409734949E0
3.043410416E-1;-1.306007776E-1;7.561028713E-1;3.088826752E0;3.182703068E0
3.143250416E-1;9.380921960E-2;4.408318207E-1;2.765161731E0;2.801651702E0
3.243090416E-1;1.490051812E-1;2.873175591E-2;2.252638661E0;2.257744227E0
3.342930416E-1;4.378915483E-1;-4.894791931E-1;1.090365971E0;1.272885242E0
3.442770416E-1;1.023808284E0;-1.049719343E0;-6.323851436E-1;1.596873531E0
3.542610416E-1;1.423670712E0;-1.494036689E0;-2.333074713E0;3.114838927E0
3.642450416E-1;1.910097366E0;-2.954296353E0;-2.940318584E0;4.584954990E0
3.742290416E-1;-1.343754769E0;-8.025906916E0;1.984611183E1;2.144968563E1
3.842140416E-1;-4.714398896E0;-8.769657544E0;1.150360157E1;1.521398369E1
3.941980416E-1;7.908031726E-1;-1.182279523E0;-5.455434662E-1;1.523408088E0
4.041820416E-1;9.513732693E-1;2.141560274E-1;2.112994872E0;2.327170219E0
4.141660416E-1;3.474438930E-1;-1.515667002E0;-5.252382497E0;5.477726318E0
4.241500417E-1;6.190052524E-1;-2.617906621E0;-4.594965423E0;5.324500899E0
4.341340417E-1;1.624143085E0;-3.449918631E-1;-3.390924903E0;3.775610128E0
4.441180417E-1;1.396190844E0;5.540660754E-1;-4.268312475E0;4.524912096E0
4.541020417E-1;1.202980274E0;1.355390728E0;-5.379526693E0;5.676579340E0
4.640870417E-1;4.204411179E-1;1.184878903E0;-6.101078367E0;6.229274917E0
4.740710417E-1;-6.271841915E-1;5.788000900E-1;-6.421187112E0;6.477654937E0
4.840550417E-1;-6.674941653E-1;-1.142733049E-1;-6.022304678E0;6.060260760E0
4.940390417E-1;-6.332392757E-1;-3.744594911E-1;-5.406781150E0;5.456600984E0
5.040230417E-1;-8.259646730E-1;-6.324196422E-1;-4.711592233E0;4.825067213E0
5.140070416E-1;-7.323650761E-1;-1.199309246E0;-4.808790498E0;5.009906918E0
5.239910416E-1;-1.358055450E0;-2.388359553E-1;-4.451073632E0;4.659765412E0
5.339760416E-1;-1.912866753E0;1.915057559E0;-2.447625761E0;3.649298088E0
5.439600416E-1;-9.614836314E0;6.413980418E0;3.040111259E1;3.252401988E1
5.539440416E-1;-2.979681163E0;6.604086263E0;8.763874063E0;1.137092537E1
5.639280416E-1;1.332005520E0;2.242788441E0;-6.846602456E0;7.326684372E0
5.739120416E-1;-2.494615155E-1;-1.887726796E-1;-3.235984213E0;3.251070593E0
5.838960416E-1;-2.272251830E0;-1.723352500E0;-1.420817855E0;3.186188255E0
5.938800416E-1;-2.853621625E0;-1.678225152E0;-2.587020459E0;4.201460567E0
6.038640416E-1;-2.559214609E0;-3.563971496E-1;-4.362582455E0;5.070377109E0
6.138490416E-1;-1.054110895E0;5.272007507E-1;-3.984898517E0;4.155539267E0
6.238330416E-1;5.185592969E-1;2.501661050E-1;-3.936196473E0;3.978081133E0
6.338170416E-1;2.665520206E0;-7.732132861E-1;-3.640385249E0;4.577691723E0
6.438010416E-1;4.559202683E0;-1.101718778E0;-2.916346754E0;5.523150528E0
6.537850416E-1;5.078704405E0;5.803504792E-1;-3.579311081E0;6.240313528E0
6.637690417E-1;4.245912377E0;1.754457641E0;-2.921915057E0;5.444582732E0
6.737540417E-1;3.337897673E0;1.887913760E0;-3.540335881E0;5.219172098E0
6.837380417E-1;3.024441306E0;1.618987302E0;-3.806862495E0;5.124506528E0
6.937220417E-1;2.678533477E0;1.621298853E0;-4.066540266E0;5.132241351E0
7.037060417E-1;1.252746365E0;4.447251892E-1;-4.707910826E0;4.891991240E0
7.136900417E-1;6.092740238E-1;-1.174867885E0;-4.995356439E0;5.167699230E0
7.236740417E-1;1.138466921E0;-9.733570459E-1;-4.333946301E0;4.585479409E0
7.336580417E-1;1.501127900E0;-7.971053016E-1;-3.178726523E0;3.604589317E0
7.436430416E-1;1.474271346E0;-4.586292833E-1;-2.370063615E0;2.828607141E0
7.536270416E-1;1.771709559E0;-4.210220388E-1;-2.632904145E0;3.201312005E0
7.636110416E-1;1.763873413E0;-3.203285998E-1;-3.200929570E0;3.668761363E0
7.735950416E-1;1.305933224E0;9.282951862E-2;-3.367239586E0;3.612807957E0
7.835790416E-1;6.757339154E-1;5.031227937E-1;-1.586140861E0;1.795993235E0
7.935630416E-1;-2.564879684E-1;8.542220736E-1;1.225210365E0;1.515460942E0
8.035480416E-1;-1.049471129E0;7.738234431E-1;3.348677600E0;3.593582341E0
8.135320416E-1;-1.622266275E0;-1.361498145E0;5.832536218E0;6.205151392E0
8.235160416E-1;1.014817898E-1;-2.892181381E0;7.377623193E0;7.924918654E0
8.335000416E-1;-5.516422583E-1;-1.352684929E0;8.986569364E0;9.104531544E0
8.434840416E-1;-6.549942800E-1;1.858869617E0;1.034180894E1;1.052793550E1
8.534680416E-1;-6.050441480E-1;3.515975211E0;1.394476265E1;1.439390724E1
8.634530416E-1;-1.233159509E0;3.796680154E0;1.561939703E1;1.612144616E1
8.734370416E-1;-6.343933699E-1;1.651972908E0;1.692211341E1;1.701438778E1
8.834210417E-1;7.845318145E-1;-1.516905735E0;1.645110849E1;1.653951220E1
8.934050417E-1;1.411841210E0;-2.239558439E0;1.478481926E1;1.501997997E1
9.033890417E-1;1.069690801E0;-4.420155895E-1;1.266029076E1;1.271308689E1
9.133730417E-1;-4.491073850E-1;1.027366315E0;9.949667763E0;1.001264538E1
9.233580417E-1;-2.347182291E0;2.397854261E0;6.665983719E0;7.462861964E0
9.333420417E-1;-3.302554471E0;3.676770718E0;4.018918787E0;6.370024895E0
9.433250417E-1;-3.887173125E0;4.707120867E0;9.972215796E-1;6.185592343E0
9.533090417E-1;-4.141994783E0;5.208967506E0;-1.564548263E0;6.836466523E0
9.632930417E-1;-4.536141264E0;4.477818212E0;-3.790513680E0;7.415890201E0
9.732770417E-1;-4.759200847E0;5.236174600E0;-5.512701123E0;8.969804391E0
9.832620416E-1;-3.796280789E0;4.611169227E0;-6.138473650E0;8.564781855E0
9.932460416E-1;-3.746926488E0;2.251407822E0;-6.635903302E0;7.946288940E0
1.003230042E0;-3.459592264E0;2.177736998E-2;-7.664830824E0;8.409452090E0
1.013214042E0;-2.496766638E0;-2.124370045E0;-7.450669534E0;8.139979622E0
1.023198042E0;-1.609444647E0;-3.708714641E0;-7.404890513E0;8.436662840E0
1.033183042E0;-7.405872846E-1;-4.960278407E0;-7.313525430E0;8.867947092E0
1.043167042E0;1.094592923E-1;-6.011023060E0;-6.990878409E0;9.220453378E0
1.053151042E0;9.499781236E-1;-6.961684431E0;-6.625830889E0;9.657595121E0
1.063135042E0;1.166533848E0;-7.812607505E0;-6.183148717E0;1.003139897E1
1.073119042E0;1.126167303E0;-7.953813086E0;-5.683747383E0;9.840547734E0
1.083103042E0;9.385631892E-1;-7.714741488E0;-5.411341978E0;9.469992560E0
1.093088042E0;5.681668917E-1;-7.352402397E0;-5.447112320E0;9.167969637E0
1.103072042E0;5.098523542E-1;-6.955716763E0;-5.871948205E0;9.117111430E0
1.113056042E0;8.865805650E-1;-7.476777352E0;-5.890125445E0;9.559382952E0
1.123040042E0;5.538982603E-1;-7.568102090E0;-5.329084518E0;9.272654114E0
1.133024042E0;1.677890691E-1;-6.955317398E0;-5.451480775E0;8.838734972E0
1.143008042E0;-2.412526095E-1;-6.256905495E0;-5.431524813E0;8.289060923E0
1.152993042E0;-4.991615975E-1;-5.752246930E0;-5.565668710E0;8.019611913E0
1.162977042E0;-6.251106226E-1;-5.363648579E0;-5.828511579E0;7.945504175E0
1.172961042E0;-6.388837391E-1;-4.996691943E0;-6.069533224E0;7.887606504E0
1.182945042E0;-5.457045570E-1;-4.710033950E0;-6.334720241E0;7.912704582E0
1.192929042E0;-4.166281486E-1;-4.516823233E0;-6.522918724E0;7.945044985E0
1.202913042E0;-3.007655704E-1;-4.439711323E0;-6.695681727E0;8.039505603E0
1.212898042E0;-2.520778705E-1;-4.336268815E0;-6.723389928E0;8.004420192E0
1.222882042E0;-1.945763335E-1;-4.144370799E0;-6.664795564E0;7.850679537E0
1.232866042E0;-2.002145112E-1;-3.925640495E0;-6.613499696E0;7.693446391E0
1.242850042E0;-4.602957398E-2;-3.775417339E0;-6.331675011E0;7.371974176E0
1.252834042E0;8.753603429E-2;-3.605746343E0;-5.887669029E0;6.904615547E0
1.262819042E0;1.054118496E-1;-3.276769127E0;-5.493135170E0;6.397097901E0
1.272803042E0;1.443627843E-1;-2.792366486E0;-5.021107576E0;5.747144726E0
1.282787042E0;1.745668691E-1;-2.277669421E0;-4.301982497E0;4.870862859E0
1.292771042E0;3.373784959E-2;-1.808274829E0;-3.378571490E0;3.832197987E0
1.302755042E0;2.518717378E-2;-1.464464396E0;-2.478384454E0;2.878833073E0
1.312739042E0;3.380304605E-2;-9.914573944E-1;-1.264256902E0;1.607008377E0
1.322724042E0;1.894263983E-2;-2.948750854E-1;-3.212518752E-2;2.972241027E-1
1.332708042E0;-3.189035968E-1;6.011393774E-1;7.928181231E-1;1.044810333E0
1.342692042E0;-1.281720781E0;1.784582496E0;1.912956362E0;2.913236154E0
1.352676042E0;-2.765859596E0;3.846979072E0;3.521696126E0;5.903521906E0
1.362660042E0;-4.140802243E0;6.359627625E0;5.447024612E0;9.341369486E0
1.372644042E0;-5.355977617E0;8.610817346E0;6.425351499E0;1.200490789E1
1.382629042E0;-6.340124238E0;1.095836860E1;8.193057761E0;1.508009327E1
1.392613042E0;-6.971576750E0;1.296177203E1;1.029017335E1;1.795823165E1
1.402597042E0;-6.474961030E0;1.295636101E1;1.236216462E1;1.904246636E1
1.412581042E0;-5.174037409E0;1.179821354E1;1.462707425E1;1.949153167E1
1.422565042E0;-3.448739540E0;1.080594455E1;1.576459743E1;1.942124543E1
1.432550042E0;-2.038932869E0;9.432035980E0;1.570243217E1;1.843059755E1
1.442534042E0;-1.204558584E0;7.703743460E0;1.506177380E1;1.696041434E1
1.452518042E0;-6.653410743E-1;7.562192894E0;1.372098620E1;1.568103640E1
1.462502042E0;-7.133475919E-1;8.562917540E0;1.188236315E1;1.466366174E1
1.472486042E0;-1.042313406E0;8.663636999E0;9.559498850E0;1.294330103E1
1.482470042E0;-1.196013609E0;8.787986226E0;7.652127748E0;1.171384691E1
1.492455042E0;-1.162240530E0;8.175310292E0;6.250332055E0;1.035630978E1
1.502439042E0;-8.537161432E-1;6.916677827E0;4.906835441E0;8.523279736E0
1.512423042E0;-2.328282335E-1;5.815572860E0;3.362619116E0;6.721778336E0
1.522407042E0;4.364814922E-1;4.631553791E0;1.460242707E0;4.875870729E0
1.532391042E0;9.226596397E-1;3.433762189E0;-3.786089677E-1;3.575663342E0
1.542376042E0;1.396941335E0;1.988355038E0;-1.879812589E0;3.072246120E0
1.552360042E0;1.833051821E0;1.457623154E-1;-3.249821649E0;3.733987999E0
1.562344042E0;1.928125209E0;-1.275554892E0;-4.357136943E0;4.932479036E0
1.572328042E0;1.816970516E0;-2.849078046E0;-5.480584706E0;6.438589620E0
1.582312042E0;1.398968710E0;-4.174196861E0;-6.417617971E0;7.782470900E0
1.592296042E0;9.471597657E-1;-4.716514419E0;-6.712716420E0;8.258521758E0
1.602281042E0;5.183423652E-1;-4.793310580E0;-6.934417695E0;8.445747681E0
1.612265042E0;1.262283759E-1;-4.853511173E0;-7.225135410E0;8.704888627E0
1.622249042E0;8.158400729E-3;-4.920533713E0;-7.651427252E0;9.097035647E0
1.632233042E0;-7.683051333E-2;-5.037185081E0;-8.104946069E0;9.543022961E0
1.642217042E0;-1.608826303E-1;-4.875890806E0;-8.536634890E0;9.832310493E0
1.652201042E0;-1.215311614E-1;-4.614520851E0;-9.024687363E0;1.013674280E1
1.662186042E0;2.435876951E-2;-4.645141550E0;-9.300999293E0;1.039646677E1
1.672170042E0;2.726768620E-1;-4.753752996E0;-9.450598551E0;1.058235953E1
1.682154042E0;3.974830489E-1;-4.783979008E0;-9.556572318E0;1.069450898E1
1.692138042E0;4.651218854E-1;-4.831313973E0;-9.479240552E0;1.064959786E1
1.702122042E0;6.072459170E-1;-4.920195744E0;-9.266521770E0;1.050930538E1
1.712106042E0;8.816148171E-1;-5.052370300E0;-8.877319987E0;1.025234122E1
1.722091042E0;1.276495709E0;-5.238884785E0;-8.288890117E0;9.888430333E0
1.732075042E0;1.711232977E0;-5.432949194E0;-7.763844650E0;9.629254333E0
1.742059042E0;2.219940738E0;-5.616159418E0;-7.294681023E0;9.470045128E0
1.752043042E0;2.559019020E0;-5.724046394E0;-6.821613210E0;9.265402973E0
1.762027042E0;2.660506218E0;-5.796960003E0;-6.577401910E0;9.162164291E0
1.772011042E0;2.606516830E0;-5.727118521E0;-6.351211728E0;8.940453397E0
1.781996042E0;2.652495241E0;-5.851710992E0;-6.217684711E0;8.940797263E0
1.791980042E0;2.801528488E0;-6.113638186E0;-6.190582867E0;9.140484121E0
1.801964042E0;2.835145008E0;-6.136962145E0;-6.190123276E0;9.166132104E0
1.811948042E0;2.717858633E0;-5.614798771E0;-5.995762412E0;8.652276445E0
1.821932042E0;2.323539074E0;-4.885931645E0;-5.678858526E0;7.843506616E0
1.831916042E0;1.821989474E0;-4.328052308E0;-5.076930360E0;6.915699842E0
1.841901042E0;1.560011262E0;-3.932696330E0;-4.450757883E0;6.140763901E0
1.851885042E0;1.605502746E0;-3.429485536E0;-3.637514850E0;5.250764172E0
1.861869042E0;1.613688848E0;-2.686307350E0;-2.170315711E0;3.811890497E0
1.871853042E0;1.348254055E0;-1.849756147E0;1.496039361E-1;2.293854428E0
1.881837042E0;1.020604595E0;-9.299481940E-1;2.824467700E0;3.143891724E0
1.891821042E0;9.296081784E-1;2.917994499E-1;4.550266968E0;4.653412486E0
1.901806042E0;1.098034302E0;1.347913016E0;5.276419816E0;5.555461718E0
1.911790042E0;1.092709389E0;2.614751464E0;6.049042241E0;6.679958911E0
1.921774042E0;6.386051193E-1;4.355706714E0;7.339462509E0;8.558487448E0
1.931758042E0;-1.586158110E-1;6.000033218E0;9.285665554E0;1.105663341E1
1.941742667E0;-1.099810686E0;7.216233609E0;1.195060016E1;1.400358723E1
1.951726667E0;-2.201055401E0;8.575483207E0;1.484383755E1;1.728360698E1
1.961711667E0;-2.726620978E0;9.428729964E0;1.857832321E1;2.101165162E1
1.971695667E0;-2.741938929E0;9.370902171E0;2.155115290E1;2.365975967E1
1.981679667E0;-2.459120802E0;9.117626517E0;2.317866690E1;2.502856344E1
1.991663667E0;-2.013487687E0;9.155017122E0;2.393043406E1;2.570085885E1
2.001647667E0;-1.802462112E0;9.537954199E0;2.333112019E1;2.526979638E1
2.011632667E0;-2.133210450E0;9.987095790E0;2.189067030E1;2.415562286E1
2.021616667E0;-2.051104287E0;1.019230265E1;2.029937629E1;2.280690115E1
2.031600667E0;-1.364103518E0;9.800730994E0;1.876062302E1;2.121028247E1
2.041584667E0;-4.625818549E-1;8.695656937E0;1.755295898E1;1.959425427E1
2.051568667E0;1.571053290E-1;7.335716198E0;1.616880726E1;1.775578054E1
2.061552667E0;8.418117238E-1;5.619007012E0;1.350750085E1;1.465382087E1
2.071537667E0;1.041504005E0;3.868585703E0;9.824559567E0;1.061002623E1
2.081521667E0;6.638354163E-1;2.456100715E0;6.152198235E0;6.657525915E0
2.091505667E0;5.059646867E-1;8.808421075E-1;2.742369869E0;2.924461588E0
2.101489667E0;3.156658839E-1;-1.013592614E0;-5.871715486E-1;1.213171614E0
2.111473667E0;1.218150437E-1;-3.000684069E0;-3.316241925E0;4.473969635E0
2.121457667E0;5.615229199E-2;-4.904823999E0;-5.283061668E0;7.209104808E0
2.131441667E0;-9.139636606E-2;-6.567520700E0;-6.973156668E0;9.579436067E0
2.141426667E0;-2.713496903E-1;-7.630085499E0;-8.317186548E0;1.129014736E1
2.151410667E0;-7.316209814E-2;-8.510572681E0;-9.719037790E0;1.291878073E1
2.161394667E0;8.088219523E-2;-9.232427241E0;-1.081968317E1;1.422356490E1
2.171378667E0;-2.062137544E-2;-9.391307784E0;-1.161513955E1;1.493681874E1
2.181362667E0;-1.482535216E-1;-9.317328227E0;-1.215215602E1;1.531370238E1
2.191346667E0;-4.437419799E-1;-9.093662288E0;-1.266280506E1;1.559609672E1
2.201331667E0;-7.222559711E-1;-8.810693888E0;-1.301450807E1;1.573300355E1
2.211315667E0;-7.567808560E-1;-8.638150740E0;-1.313667277E1;1.574047449E1
2.221299667E0;-5.215315828E-1;-8.530594132E0;-1.298144557E1;1.554223152E1
2.231283667E0;-1.612360945E-1;-8.526449625E0;-1.261334463E1;1.522572833E1
2.241267667E0;2.094004869E-1;-8.568596941E0;-1.222038601E1;1.492657149E1
2.251251667E0;5.246209592E-1;-8.606034324E0;-1.197561455E1;1.475650358E1
2.261236667E0;7.514707071E-1;-8.684261298E0;-1.186007825E1;1.471878251E1
2.271220667E0;8.177614680E-1;-8.849455665E0;-1.176040661E1;1.474071786E1
2.281204667E0;5.640630600E-1;-9.014525487E0;-1.132683791E1;1.448713546E1
2.291188667E0;1.487902869E-1;-8.936796110E0;-1.083367672E1;1.404482163E1
2.301172667E0;-1.617790085E-1;-8.777324413E0;-1.040702878E1;1.361520637E1
2.311156667E0;-5.053809884E-1;-8.605098184E0;-9.834102223E0;1.307718208E1
2.321141667E0;-9.339503208E-1;-8.189433072E0;-9.306165308E0;1.243156426E1
2.331125667E0;-1.249285691E0;-7.652061090E0;-8.728984897E0;1.167518441E1
2.341109667E0;-1.494741279E0;-7.239763389E0;-8.004331275E0;1.089576728E1
2.351093667E0;-1.552764954E0;-6.812465826E0;-7.218282473E0;1.004611226E1
2.361077667E0;-1.240929143E0;-5.942337572E0;-6.325838320E0;8.767411899E0
2.371061667E0;-7.790812594E-1;-4.922631109E0;-4.645081909E0;6.812932598E0
2.381045667E0;-3.497006258E-1;-3.622083464E0;-3.191531925E0;4.840212307E0
2.391030667E0;-3.062062767E-1;-2.005471593E0;-1.422293108E0;2.477619074E0
2.401014667E0;-3.264859006E-1;-3.693218350E-2;1.213435827E0;1.257133062E0
2.410998667E0;-6.948866165E-1;1.852394410E0;3.905955843E0;4.378438479E0
2.420982667E0;-8.293230213E-1;3.518471972E0;6.931813345E0;7.817765534E0
2.430966667E0;1.542546652E-1;4.901724975E0;1.025047894E1;1.136323109E1
2.440950667E0;1.127252400E0;6.270599674E0;1.389385212E1;1.528496794E1
2.450935667E0;8.446548593E-1;7.968965560E0;1.807074981E1;1.976789955E1
2.460919667E0;-1.801942660E-1;9.951961040E0;2.068707242E1;2.295711140E1
2.470903667E0;-9.714628404E-1;1.165747573E1;2.285718231E1;2.567666769E1
2.480887667E0;-1.523225551E0;1.284745662E1;2.422583774E1;2.746395040E1
2.490871667E0;-1.261766719E0;1.327024189E1;2.441422099E1;2.781628231E1
2.500855667E0;-6.530740544E-1;1.304757758E1;2.376002515E1;2.711465621E1
2.510840667E0;-2.613448485E-1;1.315461437E1;2.217632784E1;2.578568783E1
2.520824667E0;1.629550298E-1;1.353883140E1;1.973765767E1;2.393536381E1
2.530808667E0;3.907145679E-1;1.402265575E1;1.703139319E1;2.206481104E1
2.540792667E0;5.304725602E-1;1.437054520E1;1.479351290E1;2.063109291E1
2.550776667E0;7.199552380E-1;1.411216142E1;1.253632979E1;1.888997089E1
2.560760667E0;1.044596890E0;1.321210653E1;1.043297873E1;1.686706812E1
2.570744667E0;1.284682249E0;1.187993305E1;8.400556149E0;1.460659308E1
2.580729667E0;1.302007988E0;1.023856465E1;6.420821076E0;1.215526118E1
2.590713667E0;1.129535737E0;8.382428611E0;4.603305307E0;9.629713399E0
2.600697667E0;8.470975336E-1;6.301868244E0;2.960254081E0;7.013859268E0
2.610681667E0;5.893486132E-1;4.117298191E0;1.403626456E0;4.389720197E0
2.620665667E0;5.267191594E-1;1.783968539E0;5.661449611E-2;1.860962660E0
2.630649667E0;7.473880349E-1;-8.020274878E-1;-1.244907296E0;1.658804130E0
2.640634667E0;1.161241826E0;-3.483394525E0;-2.757388442E0;4.591918011E0
2.650618667E0;1.512254274E0;-5.944899237E0;-4.216837682E0;7.443820253E0
2.660602667E0;1.813397429E0;-8.168069100E0;-5.764696822E0;1.016058524E1
2.670586667E0;2.011549042E0;-1.030098368E1;-7.552607553E0;1.293052494E1
2.680570667E0;1.748041199E0;-1.191846971E1;-9.374635618E0;1.526398904E1
2.690554667E0;1.318386916E0;-1.305333826E1;-1.069697467E1;1.692787792E1
2.700538667E0;8.167554545E-1;-1.372646271E1;-1.180106581E1;1.812037588E1
2.710523667E0;-1.542495489E-3;-1.402724465E1;-1.279234779E1;1.898440825E1
2.720507667E0;-1.204558292E0;-1.362638878E1;-1.311419958E1;1.895024176E1
2.730491667E0;-1.967320557E0;-1.306455205E1;-1.276899284E1;1.837389584E1
2.740475667E0;-2.503651735E0;-1.385650946E1;-1.192961334E1;1.845499392E1
2.750459667E0;-3.394644024E0;-1.437728120E1;-1.108691262E1;1.847023156E1
2.760443667E0;-3.940487160E0;-1.405499319E1;-1.133011118E1;1.847814093E1
2.770427667E0;-4.112454942E0;-1.352914023E1;-1.225487055E1;1.871180839E1
2.780412667E0;-4.064996601E0;-1.318461526E1;-1.247263958E1;1.859905952E1
2.790396667E0;-4.083448367E0;-1.292023224E1;-1.125082410E1;1.761215474E1
2.800380667E0;-3.538337887E0;-1.255353463E1;-1.065277673E1;1.684021137E1
2.810364667E0;-2.929255067E0;-1.258380450E1;-1.020333869E1;1.646331654E1
2.820348667E0;-2.607016474E0;-1.237550329E1;-8.701690094E0;1.535151546E1
2.830332667E0;-2.460467416E0;-1.183922825E1;-7.508646432E0;1.423379769E1
2.840317667E0;-2.287305633E0;-1.138920782E1;-6.451576261E0;1.328791398E1
2.850301667E0;-2.156589373E0;-1.083809020E1;-5.465003631E0;1.232807128E1
2.860285667E0;-2.128149685E0;-9.909599133E0;-4.582825434E0;1.112346461E1
2.870269667E0;-2.194266492E0;-8.784084964E0;-3.669918365E0;9.769506379E0
2.880253667E0;-2.203889839E0;-7.905197580E0;-2.751793826E0;8.655729228E0
2.890237667E0;-2.111101543E0;-7.245509448E0;-2.032547125E0;7.815715239E0
2.900221667E0;-2.162669015E0;-6.366769999E0;-1.559981003E0;6.902639946E0
2.910206667E0;-2.001346674E0;-5.182470263E0;-6.643928021E-1;5.595069645E0
2.920190667E0;-2.032703830E0;-4.062792785E0;5.607345325E-1;4.577400277E0
2.930174667E0;-2.106449499E0;-2.933975524E0;1.903552285E0;4.082750687E0
2.940158042E0;-1.992981355E0;-1.415398656E0;3.800895996E0;4.519086015E0
2.950142042E0;-1.672702164E0;2.502456272E-1;5.837506351E0;6.077584701E0
2.960126042E0;-1.020057296E0;1.768248884E0;8.003536638E0;8.259771166E0
2.970110042E0;-2.683714110E-1;3.130027987E0;1.065046241E1;1.110411851E1
2.980095042E0;5.532331395E-1;4.613753404E0;1.296696085E1;1.377442779E1
2.990079042E0;1.311976613E0;5.908406180E0;1.595898811E1;1.706809444E1
3.000063042E0;2.645371870E0;8.032307863E0;1.894883905E1;2.075028827E1
3.010047042E0;4.458310731E0;9.955165315E0;2.184701733E1;2.441872268E1
3.020031042E0;6.538683987E0;1.059181015E1;2.350461877E1;2.659714146E1
3.030015042E0;8.364652491E0;1.090515309E1;2.329943295E1;2.705093993E1
3.039999042E0;9.301101034E0;1.132874878E1;2.214721338E1;2.655842785E1
3.049984042E0;9.188886534E0;1.211169095E1;2.087155675E1;2.582151379E1
3.059968042E0;7.906304458E0;1.336666014E1;2.003308474E1;2.534761798E1
3.069952042E0;6.510499238E0;1.451434578E1;1.918525952E1;2.492241995E1
3.079936042E0;6.216538657E0;1.535267161E1;1.870289697E1;2.498295886E1
3.089920042E0;6.635423831E0;1.506355019E1;1.827115611E1;2.459216418E1
3.099904042E0;7.428669970E0;1.472370884E1;1.773490913E1;2.421775674E1
3.109889042E0;8.331993452E0;1.424035110E1;1.627825778E1;2.317738965E1
3.119873042E0;8.999728523E0;1.230580916E1;1.388094731E1;2.061816555E1
3.129857042E0;9.103356972E0;1.000703596E1;1.120889840E1;1.756847404E1
3.139841042E0;8.367818173E0;8.124049507E0;8.015896482E0;1.415186058E1
3.149825042E0;6.797492276E0;6.143512196E0;4.811463261E0;1.034885607E1
3.159809042E0;4.597073929E0;4.341616679E0;2.240857106E0;6.708514341E0
3.169793042E0;2.609895643E0;2.679072005E0;-8.442209959E-2;3.741137416E0
3.179778042E0;1.244632184E0;2.239337415E-1;-1.877975979E0;2.264078040E0
3.189762042E0;3.798167101E-1;-2.448839643E0;-3.507447047E0;4.294561807E0
3.199746042E0;-6.446175188E-2;-4.678955998E0;-4.698311452E0;6.631056858E0
3.209730042E0;-2.908513239E-1;-6.990558566E0;-5.744736766E0;9.052872697E0
3.219714042E0;-4.538114700E-1;-9.259763559E0;-6.884663737E0;1.154763009E1
3.229698042E0;-7.361586034E-1;-1.101762779E1;-7.798271302E0;1.351825014E1
3.239682042E0;-1.290456813E0;-1.214431257E1;-8.476645381E0;1.486617380E1
3.249667042E0;-2.328120368E0;-1.261476434E1;-8.592601515E0;1.543972877E1
3.259651042E0;-3.624060115E0;-1.271750693E1;-8.871856349E0;1.592415239E1
3.269635042E0;-4.663465262E0;-1.282137921E1;-9.115777627E0;1.640832334E1
3.279619042E0;-5.403078693E0;-1.323039195E1;-9.150017168E0;1.696936488E1
3.289603042E0;-5.981564788E0;-1.358766267E1;-9.211504734E0;1.747156300E1
3.299587042E0;-6.381621927E0;-1.370396262E1;-9.081791271E0;1.763526644E1
3.309571042E0;-6.631902637E0;-1.368219928E1;-8.828084677E0;1.758180278E1
3.319556042E0;-6.926881803E0;-1.346687674E1;-8.724575511E0;1.747731897E1
3.329540042E0;-7.110689027E0;-1.333854906E1;-8.830370353E0;1.750583417E1
3.339524042E0;-6.902807062E0;-1.312049704E1;-8.317632691E0;1.699938827E1
3.349508042E0;-6.650282775E0;-1.268665235E1;-7.762654742E0;1.629221340E1
3.359492042E0;-6.543265865E0;-1.206096987E1;-7.320315217E0;1.555211681E1
3.369476042E0;-6.387228237E0;-1.147296918E1;-6.576699075E0;1.468600276E1
3.379460042E0;-6.103523673E0;-1.108653839E1;-5.778217923E0;1.391230165E1
3.389444042E0;-5.761732283E0;-1.075116081E1;-4.989815032E0;1.317889494E1
3.399429042E0;-5.330372660E0;-1.035564111E1;-4.249585305E0;1.239803012E1
3.409413042E0;-4.895543006E0;-9.893690028E0;-3.930108645E0;1.171738869E1
3.419397042E0;-4.475887461E0;-9.337038606E0;-3.950834101E0;1.108255154E1
3.429381042E0;-4.191976490E0;-8.598810089E0;-3.951628737E0;1.035024500E1
3.439365042E0;-4.110242940E0;-7.728730366E0;-3.706718402E0;9.506162812E0
3.449349042E0;-3.707103149E0;-6.585092753E0;-3.642985798E0;8.389124259E0
3.459333042E0;-2.926637853E0;-5.378365436E0;-3.818124817E0;7.215961544E0
3.469318042E0;-2.170208415E0;-4.391740181E0;-3.750428970E0;6.169514068E0
3.479302042E0;-1.390353569E0;-3.417852500E0;-2.804816378E0;4.634845593E0
3.489286042E0;-5.640946350E-1;-1.623535559E0;-1.652482200E0;2.384275129E0
3.499270042E0;4.733408779E-1;7.910072404E-1;-2.085295734E0;2.279956653E0
3.509254042E0;1.754257959E0;2.003323910E0;-1.984171355E0;3.320792623E0
3.519238042E0;3.215031885E0;3.522895390E0;2.214112526E-1;4.774541328E0
3.529222042E0;3.502691799E0;6.085744044E0;3.268574839E0;7.745238013E0
3.539207042E0;3.314670194E0;8.412723620E0;6.997996225E0;1.143384924E1
3.549191042E0;3.149671416E0;1.061610884E1;1.034330817E1;1.515276281E1
3.559175042E0;2.936911996E0;1.314096346E1;1.399536680E1;1.942113963E1
3.569159042E0;2.883099778E0;1.588663116E1;1.780431090E1;2.403519920E1
3.579143042E0;4.159516257E0;1.809876966E1;2.087892424E1;2.794273638E1
3.589127042E0;6.789260566E0;1.887283577E1;2.287485493E1;3.042263922E1
3.599111042E0;9.184628592E0;1.846653263E1;2.278997909E1;3.073684071E1
3.609095042E0;1.013750255E1;1.788424468E1;2.157730866E1;2.980260752E1
3.619080042E0;9.915967920E0;1.757014863E1;1.969001690E1;2.819101467E1
3.629064042E0;8.441474379E0;1.762153980E1;1.759517471E1;2.629386483E1
3.639048042E0;6.299356281E0;1.734998926E1;1.580713943E1;2.430163933E1
3.649032042E0;4.099426176E0;1.637129166E1;1.460934900E1;2.232168371E1
3.659016042E0;2.240212158E0;1.476376110E1;1.412172045E1;2.055261980E1
3.669000042E0;1.100174967E0;1.266951065E1;1.324143383E1;1.835926074E1
3.678984042E0;7.341772744E-1;1.026473796E1;1.141401521E1;1.536826617E1
3.688969042E0;8.129848775E-1;7.587909533E0;8.810042508E0;1.165564947E1
3.698953042E0;1.124751107E0;4.816571973E0;5.973034285E0;7.755099560E0
3.708937042E0;1.536695051E0;2.143520261E0;3.262531157E0;4.195261653E0
3.718921042E0;1.826588601E0;-4.220181119E-1;9.136297846E-1;2.085484257E0
3.728905042E0;1.877412892E0;-2.972190587E0;-1.150208130E0;3.698861283E0
3.738889042E0;1.690364556E0;-5.430714973E0;-3.066114412E0;6.461505633E0
3.748873042E0;1.300887661E0;-7.607942678E0;-4.827782840E0;9.103877616E0
3.758858042E0;7.606014267E-1;-9.580321954E0;-6.341956755E0;1.151440397E1
3.768842042E0;8.659872562E-2;-1.121789142E1;-7.525232643E0;1.350843120E1
3.778826042E0;-8.708085778E-1;-1.231789535E1;-8.593490877E0;1.504449863E1
3.788810042E0;-2.116202947E0;-1.282410167E1;-9.212029814E0;1.593101980E1
3.798794042E0;-3.272790096E0;-1.317340030E1;-9.627290298E0;1.664134457E1
3.808778042E0;-4.049972765E0;-1.353106045E1;-1.002873264E1;1.732245233E1
3.818762042E0;-4.728460865E0;-1.367792380E1;-1.032057185E1;1.777521153E1
3.828746042E0;-5.525208902E0;-1.348954054E1;-1.046837543E1;1.794665767E1
3.838731042E0;-6.180197042E0;-1.311042228E1;-1.056363827E1;1.793511810E1
3.848715042E0;-6.393391203E0;-1.273689630E1;-1.057645537E1;1.774726420E1
3.858699042E0;-6.148702769E0;-1.233145037E1;-1.026007773E1;1.717965101E1
3.868683042E0;-5.802130111E0;-1.187798944E1;-9.885634904E0;1.650688112E1
3.878667042E0;-5.420249627E0;-1.136756844E1;-9.425674794E0;1.573035485E1
3.888651042E0;-5.006337510E0;-1.083682486E1;-8.768088151E0;1.481146712E1
3.898635042E0;-4.609095512E0;-1.032097531E1;-7.986465692E0;1.384015632E1
3.908620042E0;-4.298556029E0;-9.898154962E0;-7.255770727E0;1.300374040E1
3.918604042E0;-4.092714157E0;-9.541533864E0;-6.690313983E0;1.235117318E1
3.928588042E0;-3.921976922E0;-9.164690756E0;-6.194106984E0;1.173628651E1
3.938572042E0;-3.930294294E0;-8.768657085E0;-5.719951004E0;1.118277246E1
3.948556042E0;-3.894092720E0;-8.369378795E0;-5.201729822E0;1.059568085E1
3.958540042E0;-3.587702713E0;-8.024680755E0;-4.648822957E0;9.943775282E0
3.968524042E0;-3.511737733E0;-7.509722904E0;-4.228272496E0;9.306262854E0
3.978508042E0;-3.473767669E0;-6.793940678E0;-3.660729466E0;8.463192777E0
3.988493042E0;-3.198986248E0;-6.086461498E0;-3.251847124E0;7.606118346E0
3.998477042E0;-2.796468308E0;-5.572653794E0;-3.078678324E0;6.953629666E0
4.008461042E0;-2.433981137E0;-5.104465483E0;-2.840125374E0;6.328202287E0
4.018445042E0;-2.264950996E0;-4.471896152E0;-2.514381083E0;5.608027322E0
4.028429042E0;-2.065443414E0;-3.757147713E0;-2.083721956E0;4.766981500E0
4.038413042E0;-1.738092746E0;-3.109501337E0;-1.715619265E0;3.953898636E0
4.048397042E0;-1.320886747E0;-2.498443328E0;-1.373017452E0;3.141995828E0
4.058381042E0;-7.978980379E-1;-1.814078776E0;-1.059702002E0;2.247329842E0
4.068366042E0;-2.684751990E-1;-1.109004555E0;-6.397274923E-1;1.308136576E0
4.078350042E0;1.389232658E-1;-2.186689085E-1;6.792885840E-2;2.678247470E-1
4.088334042E0;3.507176028E-1;9.333910346E-1;1.219713398E0;1.575411830E0
4.098318042E0;4.229995671E-1;2.045764171E0;2.866081749E0;3.546618709E0
4.108302042E0;7.051047720E-1;2.885592154E0;4.518155814E0;5.407175490E0
4.118286042E0;1.325869013E0;3.896258236E0;6.191669279E0;7.434751196E0
4.128270042E0;1.960510597E0;5.227873893E0;7.545873899E0;9.386931349E0
4.138254042E0;2.565045453E0;6.834320379E0;8.533404304E0;1.122970980E1
4.148239042E0;3.061122059E0;8.748433905E0;1.036902890E1;1.390763547E1
4.158223042E0;3.498111382E0;1.017347930E1;1.291614971E1;1.680962188E1
4.168207042E0;3.967709457E0;1.073350690E1;1.575479867E1;1.947214856E1
4.178191042E0;4.225283400E0;1.117356718E1;1.908312386E1;2.251371226E1
4.188175042E0;4.201296075E0;1.162071897E1;2.149740763E1;2.479577651E1
4.198159042E0;4.162803854E0;1.154957005E1;2.226224683E1;2.542300411E1
4.208143042E0;4.197684542E0;1.123638616E1;2.128022099E1;2.442794987E1
4.218128042E0;3.630643495E0;1.104431682E1;1.970515651E1;2.287906684E1
4.228112042E0;2.387512145E0;1.106248295E1;1.906824738E1;2.217378635E1
4.238096042E0;1.594115732E0;1.090459175E1;1.961841424E1;2.250185555E1
4.248080042E0;1.775523113E0;1.001157223E1;2.031101693E1;2.271390476E1
4.258064042E0;2.174043019E0;8.619972332E0;2.036381027E1;2.221970195E1
4.268048042E0;2.411810103E0;7.104220837E0;1.889378985E1;2.032884838E1
4.278032042E0;2.230328902E0;5.667571646E0;1.639715039E1;1.749177739E1
4.288016042E0;1.744180867E0;4.690945714E0;1.304422362E1;1.397136029E1
4.298001042E0;1.224617457E0;3.762468095E0;9.318318161E0;1.012358175E1
4.307985042E0;8.275295341E-1;2.803058705E0;5.584354658E0;6.302932664E0
4.317969042E0;3.235863395E-1;1.876916463E0;2.167810764E0;2.885641530E0
4.327953042E0;3.871847134E-2;6.366699833E-1;-6.702669150E-1;9.252597067E-1
4.337937042E0;-1.547132697E-1;-6.000512105E-1;-2.787035580E0;2.855094565E0
4.347921042E0;-1.682819894E-1;-2.130403787E0;-4.108436735E0;4.631003296E0
4.357905042E0;9.654162347E-2;-3.922946098E0;-4.897499192E0;6.275693165E0
4.367889042E0;5.023143431E-1;-5.622484351E0;-5.599412407E0;7.950979140E0
4.377874042E0;7.565288410E-1;-7.029846593E0;-6.360287191E0;9.510222509E0
4.387858042E0;7.107123980E-1;-8.232600726E0;-7.123066413E0;1.090957845E1
4.397842042E0;5.739369607E-1;-9.318856689E0;-7.722983138E0;1.211672242E1
4.407826042E0;2.781461283E-1;-1.022548911E1;-8.160944853E0;1.308583256E1
4.417810042E0;-2.633252639E-1;-1.079051959E1;-8.429390523E0;1.369522829E1
4.427794042E0;-7.692722628E-1;-1.103090331E1;-8.445651045E0;1.391408025E1
4.437778042E0;-1.154848042E0;-1.105392964E1;-8.374495109E0;1.391600528E1
4.447762042E0;-1.437200291E0;-1.082182325E1;-8.434368843E0;1.379550582E1
4.457747042E0;-1.356437672E0;-1.035006521E1;-8.206818014E0;1.327838977E1
4.467731042E0;-1.366215678E0;-9.812043017E0;-8.181208963E0;1.284814825E1
4.477715042E0;-1.562784012E0;-9.216979482E0;-8.512854849E0;1.264372185E1
4.487699042E0;-1.748266902E0;-8.622280228E0;-8.847951177E0;1.247743537E1
4.497683042E0;-1.851506218E0;-8.099458457E0;-8.973827112E0;1.222942663E1
4.507667042E0;-2.016988707E0;-7.591852310E0;-9.103360480E0;1.202396095E1
4.517651042E0;-2.229444510E0;-7.098254923E0;-9.244007066E0;1.186622570E1
4.527635042E0;-2.438204435E0;-6.583249125E0;-9.322281404E0;1.167000173E1
4.537620042E0;-2.597140819E0;-6.110265512E0;-9.250427894E0;1.138643497E1
4.547604042E0;-2.620736089E0;-5.804705225E0;-9.132712918E0;1.113415042E1
4.557588042E0;-2.584042179E0;-5.597599186E0;-9.009729601E0;1.091721659E1
4.567572042E0;-2.546633155E0;-5.390635818E0;-8.724651525E0;1.056711120E1
4.577556042E0;-2.492254050E0;-5.120114971E0;-8.316388988E0;1.007914844E1
4.587540042E0;-2.377816438E0;-4.741889580E0;-7.769386641E0;9.407597812E0
4.597524042E0;-2.252866264E0;-4.331092860E0;-7.206243056E0;8.704235219E0
4.607508042E0;-2.057055875E0;-3.987189456E0;-6.716063367E0;8.076797990E0
4.617492042E0;-1.822379337E0;-3.547906855E0;-6.284334784E0;7.443223305E0
4.627477042E0;-1.663973587E0;-2.962042159E0;-5.961280212E0;6.861440346E0
4.637461042E0;-1.407542775E0;-2.302671531E0;-5.712827341E0;6.318217238E0
4.647445042E0;-1.044643229E0;-1.707225587E0;-5.302745150E0;5.667892449E0
4.657429042E0;-4.823243938E-1;-1.043798745E0;-4.839232857E0;4.973964946E0
4.667413042E0;2.445691502E-1;-1.217799604E-1;-4.537696624E0;4.545914108E0
4.677397042E0;7.530649504E-1;1.119167016E0;-3.437289230E0;3.692505772E0
4.687381042E0;1.107355494E0;2.789146425E0;-1.733921635E0;3.465841630E0
4.697365042E0;1.299229683E0;4.450187779E0;4.902767533E-1;4.661817278E0
4.707350042E0;1.479134183E0;6.204427319E0;3.310246190E0;7.186131514E0
4.717334042E0;1.729638696E0;7.957422572E0;6.447836382E0;1.038685795E1
4.727318042E0;1.948191829E0;9.114715188E0;9.026155599E0;1.297478205E1
4.737302042E0;1.521769302E0;9.458739045E0;1.079325141E1;1.443183295E1
4.747286042E0;7.143560904E-1;9.800267310E0;1.266546554E1;1.603027016E1
4.757270042E0;-2.250224930E-1;1.056414113E1;1.495955512E1;1.831502122E1
4.767254042E0;-9.443642119E-1;1.048427869E1;1.767624518E1;2.057332173E1
4.777238042E0;-8.618931819E-1;9.581846908E0;2.065025601E1;2.278130205E1
4.787223042E0;-5.514165558E-1;7.807514580E0;2.251243281E1;2.383423956E1
4.797207042E0;-4.723977220E-1;6.390533668E0;2.277752686E1;2.366173726E1
4.807191042E0;-4.060816719E-1;5.810881054E0;2.128289434E1;2.206564824E1
4.817175042E0;-4.041152532E-1;5.929453817E0;1.850369286E1;1.943472102E1
4.827159042E0;-4.756398569E-1;6.569411105E0;1.612667106E1;1.741989997E1
4.837143042E0;-3.069814530E-1;6.997239010E0;1.439910300E1;1.601217533E1
4.847127042E0;2.599139982E-1;7.209704608E0;1.370326095E1;1.548634097E1
4.857111042E0;8.897181809E-1;7.061505758E0;1.376487891E1;1.549607542E1
4.867096042E0;1.754911093E0;6.167707390E0;1.345647571E1;1.490627606E1
4.877080042E0;2.538009682E0;4.799654809E0;1.196490479E1;1.313914480E1
4.887064042E0;2.739161502E0;3.517016600E0;9.622175154E0;1.060465304E1
4.897048042E0;2.569971732E0;2.424013535E0;7.167281889E0;7.990652413E0
4.907032042E0;2.196223701E0;1.449293795E0;4.809733654E0;5.482461935E0
4.917016042E0;1.819119222E0;4.740062910E-1;2.745872351E0;3.327715684E0
4.927000042E0;1.865554739E0;-6.188166797E-1;9.174643886E-1;2.169094159E0
4.936984042E0;2.352262936E0;-1.961239745E0;-9.050355470E-1;3.193539040E0
4.946972917E0;2.657743994E0;-3.662774237E0;-3.046487648E0;5.455328151E0
4.956957917E0;2.920182527E0;-5.423421741E0;-5.124803853E0;8.012776292E0
4.966941917E0;2.949594022E0;-6.946513245E0;-7.144657257E0;1.039231824E1
4.976925917E0;2.649440655E0;-8.355852431E0;-8.674215197E0;1.233214559E1
4.986909917E0;2.050555526E0;-9.432342374E0;-9.463439621E0;1.351778643E1
4.996893917E0;1.070517159E0;-9.907152658E0;-9.666864254E0;1.388329735E1
5.006877917E0;-8.350613326E-2;-9.733503217E0;-9.322605339E0;1.347809439E1
5.016861917E0;-1.405665527E0;-9.073972959E0;-9.235868912E0;1.302359994E1
5.026845917E0;-2.354667019E0;-8.301250547E0;-9.739756229E0;1.301222767E1
5.036829917E0;-2.783995905E0;-7.745566839E0;-1.079118150E1;1.357181038E1
5.046814917E0;-2.853484215E0;-7.344377094E0;-1.156313792E1;1.399244102E1
5.056798917E0;-2.726193547E0;-6.792432681E0;-1.204035960E1;1.409040568E1
5.066782917E0;-2.543987290E0;-6.423493254E0;-1.231402333E1;1.411978425E1
5.076766917E0;-2.436710617E0;-6.236927898E0;-1.232581365E1;1.402720608E1
5.086750917E0;-2.504850122E0;-6.110580677E0;-1.217809661E1;1.385350163E1
5.096734917E0;-2.534079768E0;-5.989236919E0;-1.200438051E1;1.365275323E1
5.106718917E0;-2.541504270E0;-5.992992586E0;-1.160624360E1;1.330714449E1
5.116702917E0;-2.643889893E0;-6.109691901E0;-1.093450494E1;1.280163611E1
5.126686917E0;-2.701790192E0;-6.248916444E0;-1.010436053E1;1.218387166E1
5.136671917E0;-2.695140738E0;-6.341167381E0;-9.284316602E0;1.156169201E1
5.146655917E0;-2.661313134E0;-6.394810322E0;-8.412336534E0;1.089695336E1
5.156639917E0;-2.497406616E0;-6.350279682E0;-7.684157041E0;1.027664154E1
5.166623917E0;-2.287593170E0;-6.238154059E0;-7.149219255E0;9.760070928E0
5.176607917E0;-2.108225590E0;-6.118565050E0;-6.655277467E0;9.283004448E0
5.186591917E0;-1.848156933E0;-6.009188204E0;-6.265397991E0;8.875879613E0
5.196575917E0;-1.606933121E0;-5.830927649E0;-5.982260606E0;8.507020234E0
5.206559917E0;-1.374428385E0;-5.513124461E0;-5.628436232E0;7.997680234E0
5.216543917E0;-1.086745448E0;-5.096422638E0;-5.456929795E0;7.545370909E0
5.226528917E0;-8.571465585E-1;-4.727166291E0;-5.590976045E0;7.371554415E0
5.236512917E0;-6.327130263E-1;-4.221727708E0;-5.550753633E0;7.002440753E0
5.246496917E0;-3.445530295E-1;-3.783972985E0;-5.269787904E0;6.496755567E0
5.256480917E0;-1.104911066E-1;-3.308597860E0;-4.887713876E0;5.903285104E0
5.266464917E0;-1.599644713E-1;-2.555168336E0;-4.374305538E0;5.068433959E0
5.276448917E0;-4.289879930E-1;-1.411015583E0;-3.367322617E0;3.676119867E0
5.286432917E0;-8.934758940E-1;1.981767565E-1;-1.861354684E0;2.074178020E0
5.296416917E0;-1.408458449E0;1.949112035E0;6.341077334E-1;2.486943012E0
5.306400917E0;-1.633827390E0;3.609732975E0;3.817495657E0;5.502075715E0
5.316385917E0;-1.142544623E0;4.605735995E0;7.115060990E0;8.552327471E0
5.326369917E0;-4.962341890E-2;4.985601529E0;9.722674173E0;1.092653093E1
5.336353917E0;1.387303369E0;5.073266494E0;1.127510876E1;1.244149192E1
5.346337917E0;2.592239683E0;5.620045477E0;1.175929798E1;1.328855548E1
5.356321917E0;2.593129922E0;6.728138452E0;1.156241404E1;1.362650315E1
5.366305917E0;1.497234385E0;8.596444305E0;1.129419407E1;1.427232935E1
5.376289917E0;-6.549437016E-2;1.067593288E1;1.078267263E1;1.517385453E1
5.386273917E0;-1.137208600E0;1.211143835E1;1.126746294E1;1.658119126E1
5.396258917E0;-1.388424280E0;1.268858427E1;1.305669690E1;1.825938735E1
5.406242917E0;-9.171161869E-1;1.223702485E1;1.513973005E1;1.948838899E1
5.416226917E0;4.240137666E-2;1.106409444E1;1.739542447E1;2.061593500E1
5.426210917E0;1.003856415E0;9.408410890E0;1.902583986E1;2.124872950E1
5.436194917E0;1.936618874E0;7.845515635E0;1.899765160E1;2.064493581E1
5.446178917E0;2.201025873E0;6.331706586E0;1.753022033E1;1.876815516E1
5.456162917E0;1.400128944E0;5.831850339E0;1.494144980E1;1.610024104E1
5.466146917E0;2.143839227E-1;6.042239590E0;1.244947641E1;1.383994519E1
5.476131917E0;-8.018036856E-1;6.277445594E0;1.046578278E1;1.223036473E1
5.486115917E0;-1.487138437E0;6.426778219E0;9.097809718E0;1.123766883E1
5.496099917E0;-1.740104481E0;6.322286137E0;8.388357688E0;1.064724426E1
5.506083917E0;-1.794435493E0;5.953661875E0;7.930482110E0;1.007763042E1
5.516067917E0;-1.681896911E0;5.305619642E0;7.187943610E0;9.090924614E0
5.526051917E0;-1.453390939E0;4.546280336E0;6.293235415E0;7.898469606E0
5.536035917E0;-1.351115682E0;3.825114579E0;5.348891961E0;6.713245142E0
5.546019917E0;-1.407863349E0;2.962474269E0;4.461168850E0;5.537179834E0
5.556003917E0;-1.483139234E0;1.918748614E0;3.656155189E0;4.387341906E0
5.565988917E0;-1.627105284E0;7.614986819E-1;2.853932405E0;3.372281426E0
5.575972917E0;-1.732855688E0;-5.268253595E-1;1.961582392E0;2.669857538E0
5.585956917E0;-1.820496095E0;-1.893079337E0;1.047936820E0;2.827742383E0
5.595940917E0;-1.966191167E0;-3.137463892E0;-2.246757531E-1;3.709456371E0
5.605924917E0;-2.199992670E0;-4.304629532E0;-1.596774607E0;5.091118963E0
5.615908917E0;-2.683435197E0;-5.211389422E0;-2.755643048E0;6.477111453E0
5.625892917E0;-3.136102660E0;-5.997351100E0;-3.513435765E0;7.625456772E0
5.635876917E0;-3.425843305E0;-6.791383690E0;-4.222203671E0;8.699787274E0
5.645861917E0;-3.792685336E0;-7.335646616E0;-4.749016752E0;9.526244456E0
5.655845917E0;-4.107079597E0;-7.735469867E0;-5.055720170E0;1.011266055E1
5.665829917E0;-4.451188238E0;-8.275521044E0;-5.182600656E0;1.073110781E1
5.675813917E0;-4.895445650E0;-8.909073291E0;-5.247807051E0;1.144012473E1
5.685797917E0;-5.517829716E0;-9.377301364E0;-5.345411114E0;1.212244388E1
5.695781917E0;-6.220610073E0;-9.639125648E0;-5.676285167E0;1.279956820E1
5.705765917E0;-6.976891869E0;-9.704865893E0;-6.034649320E0;1.338948971E1
5.715750917E0;-7.624502578E0;-9.627903087E0;-6.276388417E0;1.379212126E1
5.725734917E0;-7.981494389E0;-9.542068300E0;-6.266373307E0;1.392920509E1
5.735718917E0;-8.129264638E0;-9.415152730E0;-6.203375405E0;1.390006874E1
5.745702917E0;-8.085749075E0;-9.183701808E0;-6.191190977E0;1.371315291E1
5.755686917E0;-7.869757606E0;-8.912694472E0;-6.158425519E0;1.339012369E1
5.765670917E0;-7.471991991E0;-8.753164887E0;-6.112768121E0;1.303128904E1
5.775654917E0;-7.013442230E0;-8.766598865E0;-6.032866504E0;1.274508163E1
5.785639917E0;-6.576637679E0;-8.869444372E0;-5.913972144E0;1.252574441E1
5.795623917E0;-6.158711448E0;-8.922296770E0;-5.767058512E0;1.227990514E1
5.805607917E0;-5.873474329E0;-8.832467165E0;-5.674969543E0;1.202977374E1
5.815591917E0;-5.666477047E0;-8.697451447E0;-5.755629544E0;1.186936794E1
5.825575917E0;-5.445824763E0;-8.577742571E0;-5.844730586E0;1.172158482E1
5.835559917E0;-5.135958002E0;-8.425248941E0;-5.923822948E0;1.150889059E1
5.845543917E0;-4.742319058E0;-8.129044198E0;-5.871360560E0;1.109251209E1
5.855528917E0;-4.264459452E0;-7.771043742E0;-5.794511189E0;1.059014142E1
5.865512917E0;-3.740302470E0;-7.370310665E0;-5.743974289E0;1.006501776E1
5.875496917E0;-3.109172431E0;-6.912712246E0;-5.434702774E0;9.326764607E0
5.885480917E0;-2.301973958E0;-6.440114549E0;-4.965857821E0;8.451857985E0
5.895464917E0;-1.554145482E0;-5.775714145E0;-4.297631584E0;7.365044419E0
5.905448917E0;-9.209955221E-1;-4.611141161E0;-3.591447562E0;5.916870046E0
5.915432917E0;-4.610421368E-1;-2.784106709E0;-2.523744814E0;3.785907805E0
5.925417917E0;-2.156587619E-1;-5.093556333E-1;-7.381589359E-1;9.224047254E-1
5.935401917E0;3.713633904E-1;1.557555578E0;1.521857741E0;2.209058879E0
5.945381542E0;1.744719396E0;3.315768886E0;4.908778471E0;6.175311745E0
5.955365542E0;3.764235123E0;5.255887903E0;9.122188514E0;1.118070423E1
5.965349542E0;5.811580381E0;6.814784832E0;1.329521535E1;1.603054927E1
5.975333542E0;7.432345530E0;7.837245918E0;1.687805113E1;2.003823330E1
5.985318542E0;8.490907910E0;8.638103963E0;1.936265001E1;2.283910183E1
5.995302542E0;8.476505633E0;1.000266926E1;2.013378782E1;2.402652601E1
6.005286542E0;7.621541548E0;1.187576048E1;1.939733218E1;2.398703980E1
6.015270542E0;6.724423131E0;1.319064959E1;1.848467420E1;2.368320678E1
6.025254542E0;6.191174605E0;1.344024150E1;1.787950843E1;2.320878188E1
6.035238542E0;6.023662401E0;1.256992555E1;1.789459191E1;2.268267966E1
6.045223542E0;5.462755376E0;1.148731123E1;1.760022553E1;2.171561545E1
6.055207542E0;3.981726403E0;1.118802501E1;1.696174350E1;2.070571880E1
6.065191542E0;2.357776130E0;1.123632067E1;1.610724544E1;1.978022664E1
6.075175542E0;1.258121711E0;1.139526670E1;1.537258606E1;1.917684478E1
6.085159542E0;8.546411727E-1;1.110139500E1;1.496423406E1;1.865206915E1
6.095143542E0;9.715995191E-1;1.000086949E1;1.425720161E1;1.744216712E1
6.105128542E0;1.036237418E0;8.652778135E0;1.284796065E1;1.552464010E1
6.115112542E0;1.020199529E0;7.582396778E0;1.095731259E1;1.336399069E1
6.125096542E0;8.955632038E-1;6.662069008E0;8.698759469E0;1.099334404E1
6.135080542E0;6.315048453E-1;5.659565054E0;6.417080612E0;8.579533702E0
6.145064542E0;5.816023681E-1;4.488977038E0;4.187213933E0;6.166193046E0
6.155048542E0;6.901494947E-1;2.955428959E0;2.068264841E0;3.672681052E0
6.165032542E0;8.188446647E-1;1.114089294E0;1.486479163E-2;1.382722858E0
6.175017542E0;7.938928413E-1;-8.040775216E-1;-1.695964435E0;2.037916060E0
6.185001542E0;5.324527198E-1;-2.864546270E0;-2.955520760E0;4.150208934E0
6.194985542E0;1.015857241E-1;-4.781357701E0;-3.900288722E0;6.171219753E0
6.204969542E0;-4.681105435E-1;-6.393970662E0;-4.703789708E0;7.951580090E0
6.214953542E0;-1.285187303E0;-7.962562274E0;-5.500759354E0;9.762809936E0
6.224937542E0;-2.254813240E0;-9.151849101E0;-5.899746453E0;1.111969122E1
6.234922542E0;-3.306393168E0;-9.752727692E0;-6.248601279E0;1.204545355E1
6.244906542E0;-4.288199733E0;-9.977884086E0;-6.871154330E0;1.285144309E1
6.254890542E0;-5.050988603E0;-1.009209073E1;-7.756638542E0;1.369409445E1
6.264874542E0;-5.595208844E0;-1.010445993E1;-8.580555081E0;1.438862044E1
6.274858542E0;-5.962115779E0;-9.944434505E0;-9.221333903E0;1.481457394E1
6.284842542E0;-6.282469522E0;-9.625838435E0;-9.698338646E0;1.503941360E1
6.294827542E0;-6.547339620E0;-9.200784448E0;-9.997499156E0;1.508217756E1
6.304811542E0;-6.627854025E0;-8.845467864E0;-1.009534412E1;1.496952650E1
6.314795542E0;-6.518477179E0;-8.483051006E0;-9.998658074E0;1.464328728E1
6.324779542E0;-6.320817316E0;-8.008940050E0;-9.743622993E0;1.410794249E1
6.334763542E0;-6.087445584E0;-7.599758915E0;-9.280957961E0;1.345174747E1
6.344747542E0;-5.887446835E0;-7.235664491E0;-8.760628858E0;1.279708908E1
6.354732542E0;-5.737899032E0;-6.806810984E0;-8.209080302E0;1.210971348E1
6.364716542E0;-5.656632675E0;-6.314622776E0;-7.616667894E0;1.139673567E1
6.374700542E0;-5.546414999E0;-5.792532492E0;-7.042365482E0;1.067291261E1
6.384684542E0;-5.366452904E0;-5.345599979E0;-6.406321151E0;9.920443870E0
6.394668542E0;-4.998586441E0;-5.073450097E0;-5.790546193E0;9.179116924E0
6.404652542E0;-4.591325532E0;-4.816770194E0;-5.461715156E0;8.608825569E0
6.414637542E0;-4.358851055E0;-4.553979950E0;-5.193063664E0;8.167387962E0
6.424621542E0;-4.232158556E0;-4.251488866E0;-4.789486501E0;7.676294976E0
6.434605542E0;-4.145939899E0;-3.919162365E0;-4.350659983E0;7.174739966E0
6.444589542E0;-3.968989413E0;-3.667370734E0;-3.966633570E0;6.703481702E0
6.454573542E0;-3.687022933E0;-3.445598708E0;-3.799705503E0;6.316965290E0
6.464557542E0;-3.416064422E0;-3.316990369E0;-3.749327062E0;6.060476438E0
6.474541542E0;-3.209257467E0;-3.112462952E0;-3.710781632E0;5.810048144E0
6.484526542E0;-3.011972703E0;-2.562879059E0;-3.631591621E0;5.369244485E0
6.494510542E0;-2.974619520E0;-1.680272262E0;-3.772704231E0;5.089692857E0
6.504494542E0;-3.065484667E0;-6.053552198E-1;-3.618373990E0;4.780824355E0
6.514478542E0;-3.182057682E0;6.644471812E-1;-2.894188145E0;4.352390856E0
6.524462542E0;-3.279700921E0;1.903271034E0;-1.781651287E0;4.189649158E0
6.534446542E0;-3.252047684E0;3.443970843E0;2.773118037E-1;4.744855229E0
6.544431542E0;-2.947722913E0;5.334405484E0;3.355939842E0;6.957534367E0
6.554415542E0;-1.974135633E0;6.876505117E0;6.806470091E0;9.874794642E0
6.564399542E0;-5.490072106E-1;7.943939477E0;1.044752192E1;1.313614470E1
6.574383542E0;9.527875645E-1;8.674694669E0;1.390886894E1;1.641995027E1
6.584367542E0;2.281878540E0;8.940379869E0;1.668376920E1;1.906529614E1
6.594351542E0;3.228013288E0;9.134454219E0;1.864269755E1;2.100972383E1
6.604336542E0;3.765798669E0;9.339975663E0;1.997127733E1;2.236667841E1
6.614320542E0;3.680567899E0;9.152073049E0;2.047673404E1;2.272891678E1
6.624304542E0;3.653355542E0;8.629157723E0;1.983369000E1;2.193592097E1
6.634288542E0;3.751877325E0;7.608091782E0;1.796514208E1;1.986720851E1
6.644272542E0;3.558378341E0;6.655089186E0;1.551623928E1;1.725415747E1
6.654256542E0;3.242100400E0;5.976926776E0;1.316765834E1;1.481965232E1
6.664240542E0;2.823858420E0;5.477970416E0;1.117287019E1;1.275991241E1
6.674225542E0;2.403702062E0;5.484912815E0;9.877448802E0;1.155101931E1
6.684209542E0;2.114911443E0;5.534176192E0;8.802437035E0;1.061050679E1
6.694193542E0;2.095050205E0;5.018541234E0;7.614049510E0;9.356748443E0
6.704177542E0;2.193659843E0;4.404605809E0;6.557556460E0;8.198429274E0
6.714161542E0;2.293566393E0;4.009510033E0;5.677718319E0;7.319364919E0
6.724145542E0;2.417060757E0;3.518455015E0;4.633111489E0;6.299796065E0
6.734130542E0;2.486034074E0;2.950580447E0;3.455544822E0;5.179486500E0
6.744114542E0;2.471941992E0;2.309573584E0;2.330926446E0;4.108265504E0
6.754098542E0;2.265865793E0;1.506769001E0;1.158236357E0;2.957365733E0
6.764082542E0;1.992226480E0;4.208170938E-1;1.529058588E-1;2.041919091E0
6.774066542E0;1.648200284E0;-8.521673620E-1;-7.460626173E-1;1.999840698E0
6.784050542E0;1.260801636E0;-2.120507959E0;-1.623904518E0;2.953513273E0
6.794035542E0;1.004537031E0;-3.273605783E0;-2.406951360E0;4.185570967E0
6.804019542E0;7.160393576E-1;-4.157915289E0;-3.114953865E0;5.244416984E0
6.814003542E0;3.681953689E-1;-4.862790120E0;-3.853416857E0;6.215393555E0
6.823987542E0;3.116361290E-2;-5.495852371E0;-4.466876317E0;7.082255890E0
6.833971542E0;-4.187375316E-1;-5.909546971E0;-5.113946743E0;7.826272281E0
6.843955542E0;-7.725351553E-1;-6.147804637E0;-6.069923233E0;8.673884970E0
6.853939542E0;-1.040224050E0;-6.465649340E0;-7.252819637E0;9.771902586E0
6.863924542E0;-1.406911861E0;-6.917908081E0;-8.470397047E0;1.102653524E1
6.873908542E0;-1.819798814E0;-7.370247515E0;-9.494049795E0;1.215603544E1
6.883892542E0;-2.317801786E0;-7.648334075E0;-1.014528870E1;1.291495653E1
6.893876542E0;-2.911964266E0;-7.577933598E0;-1.034073890E1;1.314669139E1
6.903860542E0;-3.510077709E0;-7.418347880E0;-1.014272762E1;1.304712437E1
6.913844542E0;-3.910897325E0;-7.366635105E0;-9.612467022E0;1.272642734E1
6.923828542E0;-4.143652176E0;-7.423798070E0;-8.844594875E0;1.226823091E1
6.933813542E0;-4.254824703E0;-7.269539165E0;-8.161617867E0;1.172867167E1
6.943797667E0;-4.195925992E0;-6.959460150E0;-7.444247537E0;1.102073963E1
6.953781667E0;-3.874085594E0;-6.842272593E0;-6.616874709E0;1.027658817E1
6.963765667E0;-3.636790965E0;-6.623854530E0;-5.881271591E0;9.575544521E0
6.973749667E0;-3.564428163E0;-6.211554490E0;-5.482486221E0;9.019213518E0
6.983733667E0;-3.381987726E0;-5.843368185E0;-5.307699496E0;8.588042074E0
6.993717667E0;-3.095802480E0;-5.612791421E0;-5.219396600E0;8.266167274E0
7.003702667E0;-2.810037649E0;-5.532882788E0;-5.198417374E0;8.095223699E0
7.013686667E0;-2.584564628E0;-5.340978339E0;-5.020742126E0;7.772636324E0
7.023670667E0;-2.308832157E0;-4.994420884E0;-4.670548287E0;7.217268680E0
7.033654667E0;-1.972471223E0;-4.617356751E0;-4.319548702E0;6.623377317E0
7.043638667E0;-1.790698830E0;-4.036480899E0;-3.806487688E0;5.830019629E0
7.053622667E0;-1.776842829E0;-3.004115800E0;-3.309235792E0;4.809669812E0
7.063606667E0;-1.785346874E0;-1.453471631E0;-2.404689656E0;3.329050253E0
7.073591667E0;-1.888705327E0;5.905342823E-1;-1.308346662E0;2.372279397E0
7.083575667E0;-1.966668300E0;2.800045635E0;2.620400459E-1;3.431720377E0
7.093559667E0;-1.860513562E0;5.010814723E0;2.634830802E0;5.959203659E0
7.103543667E0;-1.458943455E0;7.211899068E0;6.289928815E0;9.680041770E0
7.113527667E0;-7.986808339E-1;8.986697418E0;1.153331479E1;1.464294955E1
7.123511667E0;4.417988405E-1;9.951561091E0;1.730465697E1;1.996697040E1
7.133495667E0;2.100099276E0;1.074457451E1;2.276187269E1;2.525785317E1
7.143480667E0;3.731034633E0;1.082130401E1;2.688028185E1;2.921593388E1
7.153464667E0;4.542374981E0;1.028753976E1;2.730984404E1;2.953462758E1
7.163448667E0;4.477957668E0;1.043320326E1;2.531145986E1;2.774119384E1
7.173432667E0;3.981826098E0;1.106624154E1;2.213972427E1;2.506958379E1
7.183416667E0;3.233739467E0;1.163686430E1;1.862956938E1;2.220212910E1
7.193400667E0;2.659872673E0;1.180971033E1;1.559294189E1;1.974041584E1
7.203384667E0;2.252978969E0;1.133303362E1;1.313094133E1;1.749100299E1
7.213369667E0;2.128485023E0;1.076999119E1;1.138102522E1;1.581299762E1
7.223353667E0;2.276610491E0;9.676577064E0;9.754659027E0;1.392740004E1
7.233337667E0;2.568481861E0;7.936882473E0;7.677260250E0;1.133717458E1
7.243321667E0;2.848005959E0;5.925857779E0;5.332344341E0;8.465271675E0
7.253305667E0;2.801151051E0;4.112004122E0;2.683810589E0;5.653128725E0
7.263289667E0;2.461959041E0;2.741293396E0;-1.222009599E-2;3.684573399E0
7.273273667E0;1.946866412E0;1.622064984E0;-2.469093229E0;3.538051019E0
7.283258667E0;1.466494257E0;5.773885721E-1;-4.356153442E0;4.632499949E0
7.293242667E0;1.186022984E0;-3.809379137E-1;-5.814961826E0;5.946893748E0
7.303226667E0;1.042711529E0;-1.359691647E0;-6.877196842E0;7.087442777E0
7.313210667E0;1.110073207E0;-2.437095510E0;-7.629388511E0;8.085744623E0
7.323194667E0;1.320706799E0;-3.560512283E0;-8.325148702E0;9.150388793E0
7.333178667E0;1.473303632E0;-4.659463136E0;-8.668905925E0;9.951439607E0
7.343162667E0;1.469204295E0;-5.575594944E0;-8.804980574E0;1.052489920E1
7.353146667E0;1.350994060E0;-6.053557461E0;-9.127095498E0;1.103515361E1
7.363131667E0;1.027124533E0;-6.172120868E0;-9.532815081E0;1.140283404E1
7.373115667E0;5.943520025E-1;-6.220214217E0;-9.927933662E0;1.173065156E1
7.383099667E0;2.835561915E-1;-6.375837277E0;-1.017509079E1;1.201100236E1
7.393083667E0;3.772857428E-2;-6.362871076E0;-1.020809014E1;1.202882604E1
7.403067667E0;-1.706699923E-1;-6.235293016E0;-1.016662168E1;1.192762356E1
7.413051667E0;-3.809811831E-1;-6.149545938E0;-1.013900879E1;1.186429775E1
7.423035667E0;-4.291381203E-1;-6.175836189E0;-1.023424473E1;1.196097310E1
7.433020667E0;-4.148514721E-1;-6.280656300E0;-1.026476252E1;1.204093414E1
7.443004667E0;-5.188095577E-1;-6.465865102E0;-9.996133246E0;1.191634402E1
7.452988667E0;-6.610205667E-1;-6.591387865E0;-9.562031279E0;1.163253130E1
7.462972667E0;-7.271034591E-1;-6.657921578E0;-9.068982360E0;1.127399841E1
7.472956667E0;-7.010355484E-1;-6.638966659E0;-8.505297908E0;1.081237354E1
7.482940667E0;-7.011615559E-1;-6.574264879E0;-7.740839950E0;1.018003877E1
7.492924667E0;-6.497328092E-1;-6.540304250E0;-6.947718941E0;9.563918177E0
7.502908667E0;-4.512644959E-1;-6.483583335E0;-6.269557700E0;9.030384613E0
7.512893667E0;-2.429115377E-1;-6.391987871E0;-5.852174091E0;8.669743742E0
7.522877667E0;-6.820090011E-2;-6.302055355E0;-5.438805181E0;8.324731519E0
7.532861667E0;4.104628444E-2;-6.229431183E0;-5.029317652E0;8.006343342E0
7.542845667E0;1.382112028E-1;-6.083667113E0;-4.949693193E0;7.844078696E0
7.552829667E0;1.665820576E-1;-5.710662702E0;-5.002426307E0;7.593660977E0
7.562813667E0;2.297553755E-1;-5.167500806E0;-5.065559279E0;7.239871748E0
7.572797667E0;3.112572294E-1;-4.544960035E0;-5.169544408E0;6.890408709E0
7.582781667E0;2.191420944E-1;-3.523746160E0;-5.378484719E0;6.433732054E0
7.592766667E0;-1.533056621E-1;-2.033978523E0;-5.195834659E0;5.581869675E0
7.602750667E0;-5.608786663E-1;-2.494311100E-1;-4.071462452E0;4.117475835E0
7.612734667E0;-7.144193865E-1;1.469450317E0;-1.909967850E0;2.513494874E0
7.622718667E0;-5.796565609E-1;3.076741726E0;9.628428751E-1;3.275577473E0
7.632702667E0;-2.083286558E-1;4.870611355E0;4.396560625E0;6.564754461E0
7.642686667E0;6.398109613E-1;6.362194553E0;8.021668854E0;1.025836482E1
7.652670667E0;1.281485138E0;7.618438430E0;1.109407078E1;1.351892062E1
7.662654667E0;1.140666790E0;9.265590309E0;1.340667965E1;1.633680947E1
7.672639667E0;3.133136952E-1;1.099202751E1;1.520117259E1;1.876162260E1
7.682623667E0;-8.095265418E-1;1.225869112E1;1.673879501E1;2.076338363E1
7.692607667E0;-1.667511006E0;1.290230351E1;1.840178407E1;2.253609740E1
7.702591667E0;-2.179363401E0;1.330547019E1;2.016830511E1;2.425996069E1
7.712575667E0;-2.217842027E0;1.307317318E1;2.174559621E1;2.546954327E1
7.722559667E0;-1.569870837E0;1.215296528E1;2.276952553E1;2.585750089E1
7.732543667E0;-4.771048037E-1;1.117778536E1;2.280306282E1;2.539980686E1
7.742528667E0;5.272118604E-1;1.041265381E1;2.166452573E1;2.404273251E1
7.752512667E0;1.183480176E0;9.956193255E0;1.973447445E1;2.213539905E1
7.762496667E0;1.358044633E0;9.396809430E0;1.704185503E1;1.950818125E1
7.772480667E0;1.571603660E0;8.452840197E0;1.342045452E1;1.593828865E1
7.782464667E0;2.035818788E0;7.237564251E0;9.343593335E0;1.199289918E1
7.792448667E0;2.172109053E0;5.965577915E0;5.111777426E0;8.150855541E0
7.802432667E0;1.884682881E0;4.746780776E0;1.474408171E0;5.315810075E0
7.812416667E0;1.617872531E0;3.381986849E0;-1.522872818E0;4.046540274E0
7.822401667E0;1.458516901E0;1.626782518E0;-3.875248021E0;4.448734667E0
7.832385667E0;1.409972878E0;-3.776283896E-1;-5.510407845E0;5.700457993E0
7.842369667E0;1.222799266E0;-2.366396241E0;-6.665497230E0;7.178016616E0
7.852353667E0;1.009766927E0;-4.287244005E0;-7.437184101E0;8.643598658E0
7.862337667E0;9.449068335E-1;-6.030130007E0;-8.086887528E0;1.013178497E1
7.872321667E0;1.163849684E0;-7.647028391E0;-8.578355944E0;1.155074803E1
7.882305667E0;1.643699975E0;-9.217045555E0;-8.966563700E0;1.296360069E1
7.892289667E0;2.018126429E0;-1.062294775E1;-9.459075260E0;1.436641771E1
7.902273667E0;1.993050499E0;-1.164806756E1;-9.786722234E0;1.534371729E1
7.912258667E0;1.601719159E0;-1.205104831E1;-9.789657537E0;1.560867273E1
7.922242667E0;1.058148543E0;-1.190829673E1;-9.704427352E0;1.539815312E1
7.932226667E0;5.022809774E-1;-1.144096386E1;-9.704715620E0;1.501097750E1
7.942210667E0;-1.499709950E-1;-1.081599942E1;-9.850813565E0;1.463034048E1
7.952193917E0;-8.207939802E-1;-1.012878318E1;-9.794165740E0;1.411352663E1
7.962177917E0;-1.196433439E0;-9.555875330E0;-9.635404480E0;1.362304025E1
7.972161917E0;-1.448414813E0;-9.116700903E0;-9.441595008E0;1.320438780E1
7.982145917E0;-1.693971411E0;-8.791326156E0;-9.189106389E0;1.282952185E1
7.992130917E0;-1.822418513E0;-8.503906855E0;-8.990082371E0;1.250836608E1
8.002114917E0;-1.769376373E0;-8.312896446E0;-8.853870313E0;1.227297680E1
8.012098917E0;-1.705060217E0;-8.122212312E0;-8.693886985E0;1.201920272E1
8.022082917E0;-1.668799294E0;-7.946419866E0;-8.533403719E0;1.177919602E1
8.032066917E0;-1.556873208E0;-7.757194027E0;-8.324400258E0;1.148449185E1
8.042050917E0;-1.378171772E0;-7.497687580E0;-7.902055287E0;1.097985220E1
8.052034917E0;-1.319283440E0;-7.188459334E0;-7.535749446E0;1.049771290E1
8.062018917E0;-1.277602733E0;-6.840057083E0;-7.151364014E0;9.978008664E0
8.072002917E0;-1.243662862E0;-6.398307542E0;-6.735630489E0;9.373033383E0
8.081987917E0;-1.192422542E0;-5.803632261E0;-6.359906538E0;8.692090089E0
8.091971917E0;-1.139340495E0;-5.183406402E0;-5.964867479E0;7.984074319E0
8.101955917E0;-1.201706312E0;-4.597290861E0;-5.475216377E0;7.249632798E0
8.111939917E0;-1.295982724E0;-3.995258029E0;-5.014089748E0;6.540852692E0
8.121923917E0;-1.392362380E0;-3.247700863E0;-4.504799019E0;5.725333885E0
8.131907917E0;-1.398625479E0;-2.181320171E0;-3.828884863E0;4.623274837E0
8.141891917E0;-1.336011009E0;-1.098302981E0;-2.716404138E0;3.220255626E0
8.151875917E0;-1.446832117E0;1.181523478E-1;-1.011920310E0;1.769538320E0
8.161860917E0;-1.400561784E0;1.649280265E0;1.034494071E0;2.398307046E0
8.171844917E0;-9.126150003E-1;3.292243783E0;3.420466205E0;4.834389758E0
8.181828917E0;-2.293707018E-1;4.644578463E0;6.720024855E0;8.172114419E0
8.191812917E0;4.522653200E-1;5.845651522E0;1.069933811E1;1.220049268E1
8.201796917E0;1.089469812E0;7.321459517E0;1.493118793E1;1.666526589E1
8.211780917E0;1.378595257E0;8.845811681E0;1.956371470E1;2.151482842E1
8.221764917E0;1.760765910E0;1.002868353E1;2.377446075E1;2.586309676E1
8.231748917E0;2.282263725E0;1.068597372E1;2.704078792E1;2.916509855E1
8.241733917E0;2.943683949E0;1.084873447E1;2.917188987E1;3.126274897E1
8.251717917E0;3.730468038E0;1.066890920E1;2.950851407E1;3.159896230E1
8.261701917E0;3.946776425E0;1.062027206E1;2.812607793E1;3.032232647E1
8.271685917E0;3.315841683E0;1.092608261E1;2.579964390E1;2.821339597E1
8.281669917E0;2.454526060E0;1.153631090E1;2.331628463E1;2.612968228E1
8.291653917E0;2.103306035E0;1.171594087E1;2.043751559E1;2.365119892E1
8.301637917E0;2.325322182E0;1.141661839E1;1.741271351E1;2.095110715E1
8.311621917E0;2.427967422E0;1.068880143E1;1.419398736E1;1.793362147E1
8.321605917E0;2.354902516E0;9.648436754E0;1.084737675E1;1.470725943E1
8.331590917E0;2.418677073E0;8.198027894E0;7.440744470E0;1.133235803E1
8.341574917E0;2.449164310E0;6.246057740E0;4.102725175E0;7.864095433E0
8.351558917E0;2.073984003E0;4.267762252E0;1.322263035E0;4.925807936E0
8.361542917E0;1.667620349E0;2.063733834E0;-9.159201390E-1;2.806931540E0
8.371526917E0;1.211420584E0;-2.671341401E-1;-3.064146239E0;3.305736326E0
8.381510917E0;8.204456323E-1;-2.479014199E0;-4.927113000E0;5.576296706E0
8.391494917E0;2.724219234E-1;-4.256798723E0;-6.473489286E0;7.752458488E0
8.401478917E0;-4.823701483E-1;-5.607428355E0;-7.664728498E0;9.509153310E0
8.411462917E0;-1.294478382E0;-6.517273237E0;-8.531924374E0;1.081407686E1
8.421447917E0;-2.002252993E0;-7.265398167E0;-9.319733187E0;1.198551018E1
8.431431917E0;-2.751247696E0;-7.981615427E0;-1.023819277E1;1.327012208E1
8.441415917E0;-3.372207088E0;-8.509568714E0;-1.099523178E1;1.430663001E1
8.451399917E0;-3.856321753E0;-8.797543500E0;-1.157724726E1;1.504329230E1
8.461383917E0;-4.286007319E0;-8.780608209E0;-1.202608187E1;1.549501805E1
8.471367917E0;-4.595161890E0;-8.609109374E0;-1.223203835E1;1.564784455E1
8.481351917E0;-4.540957031E0;-8.512676509E0;-1.189437567E1;1.531542114E1
8.491335917E0;-4.211201258E0;-8.542156416E0;-1.121406851E1;1.471251116E1
8.501319917E0;-3.821077661E0;-8.400902889E0;-1.051202607E1;1.398851300E1
8.511304917E0;-3.486687092E0;-8.076450248E0;-9.713563626E0;1.310493624E1
8.521288917E0;-3.241093510E0;-7.733778268E0;-8.865559482E0;1.220303890E1
8.531272917E0;-3.095051697E0;-7.507084056E0;-7.954722912E0;1.136720162E1
8.541256917E0;-2.982662950E0;-7.508449965E0;-6.907773103E0;1.062969559E1
8.551240917E0;-2.932285094E0;-7.648804191E0;-6.019752953E0;1.016562477E1
8.561224917E0;-2.914507512E0;-7.743178251E0;-5.307852108E0;9.829774030E0
8.571208917E0;-3.013770137E0;-7.694021879E0;-4.769522352E0;9.540918540E0
8.581192917E0;-3.057904336E0;-7.375547431E0;-4.552912833E0;9.191218315E0
8.591176917E0;-3.010436055E0;-6.931365448E0;-4.432893469E0;8.761112756E0
8.601161917E0;-2.832011193E0;-6.468535525E0;-4.315282574E0;8.275500162E0
8.611145917E0;-2.584799686E0;-6.038252374E0;-4.287926375E0;7.843978184E0
8.621129917E0;-2.423624987E0;-5.696789598E0;-4.402116065E0;7.596446251E0
8.631113917E0;-2.237855730E0;-5.393513818E0;-4.688292248E0;7.488529480E0
8.641097917E0;-2.010575042E0;-5.108164431E0;-4.956481810E0;7.396111667E0
8.651081917E0;-1.850720937E0;-4.952945414E0;-5.175227317E0;7.398635959E0
8.661065917E0;-1.754909631E0;-4.822209274E0;-5.443477106E0;7.480966054E0
8.671049917E0;-1.675621094E0;-4.627050265E0;-5.670193537E0;7.507888848E0
8.681033917E0;-1.551699737E0;-4.451503987E0;-5.874558987E0;7.532204400E0
8.691018917E0;-1.161790587E0;-4.229589289E0;-5.864181933E0;7.323101302E0
8.701002917E0;-7.583111454E-1;-3.798604472E0;-5.982559984E0;7.127093074E0
8.710986917E0;-4.770450890E-1;-3.243059928E0;-5.787398052E0;6.651239428E0
8.720970917E0;-3.039487215E-1;-2.416854204E0;-5.025247405E0;5.584503608E0
8.730954917E0;-2.290837497E-1;-1.420448311E0;-3.224048291E0;3.530529727E0
8.740938917E0;-7.183180176E-2;-2.803962100E-1;-1.180564535E-1;3.126006534E-1
8.750922917E0;3.406789568E-1;1.129028345E0;3.488537736E0;3.682480508E0
8.760906917E0;1.291161403E0;2.797399769E0;7.948572226E0;8.524807545E0
8.770890917E0;3.168247143E0;4.205001748E0;1.277741750E1;1.381963197E1
8.780875917E0;5.268216757E0;5.146255533E0;1.653990665E1;1.810542918E1
8.790859917E0;6.630969422E0;5.643909134E0;1.993745703E1;2.175604878E1
8.800843917E0;7.019277166E0;6.398275382E0;2.222315702E1;2.416768271E1
8.810827917E0;6.441007419E0;7.942886978E0;2.395903162E1;2.605016749E1
8.820811917E0;5.420897498E0;9.669446969E0;2.587645994E1;2.815094161E1
8.830795917E0;4.344416910E0;1.106694554E1;2.638428594E1;2.893927757E1
8.840779917E0;3.577449912E0;1.200623525E1;2.575062318E1;2.863638292E1
8.850763917E0;3.109753937E0;1.221889264E1;2.434510690E1;2.741634799E1
8.860747917E0;2.685373842E0;1.198256572E1;2.188654919E1;2.509609829E1
8.870732917E0;2.030278405E0;1.175447987E1;1.889327296E1;2.234380430E1
8.880716917E0;1.409713262E0;1.152894458E1;1.585735883E1;1.965603428E1
8.890700917E0;9.732066263E-1;1.108587532E1;1.290512888E1;1.704071930E1
8.900684917E0;7.338315578E-1;1.019370131E1;1.014258963E1;1.439868673E1
8.910668917E0;5.866160631E-1;8.729597100E0;7.637811425E0;1.161404957E1
8.920652917E0;3.116840762E-1;7.048395715E0;5.399449911E0;8.884316995E0
8.930636917E0;2.844734734E-1;4.968018951E0;3.289045941E0;5.964894019E0
8.940620917E0;3.476489840E-1;2.294249786E0;1.356217232E0;2.687706658E0
8.950605792E0;2.865993749E-1;-2.579236060E-1;-5.336595851E-1;6.583740130E-1
8.960589792E0;1.108139460E-1;-2.657472391E0;-2.282747144E0;3.505049751E0
8.970574792E0;-2.606332058E-1;-4.939488632E0;-3.942913170E0;6.325586287E0
8.980558792E0;-9.421508946E-1;-6.977999917E0;-4.983618153E0;8.626504567E0
8.990542792E0;-1.646989764E0;-8.415230321E0;-5.559280043E0;1.021930875E1
9.000526792E0;-2.365583478E0;-9.430573007E0;-6.135168804E0;1.149660770E1
9.010510792E0;-3.006913108E0;-1.030149356E1;-6.666135746E0;1.263327597E1
9.020494792E0;-3.246034115E0;-1.108834635E1;-7.195666028E0;1.361123697E1
9.030478792E0;-3.215638241E0;-1.174225919E1;-7.663608171E0;1.438582185E1
9.040462792E0;-3.182697952E0;-1.215825584E1;-8.212845324E0;1.501344663E1
9.050446792E0;-3.355798924E0;-1.241260270E1;-8.784271490E0;1.557233181E1
9.060431792E0;-3.492945952E0;-1.251436531E1;-9.177662219E0;1.590721516E1
9.070415792E0;-3.737858918E0;-1.242393344E1;-9.521755657E0;1.609315203E1
9.080399792E0;-4.157246368E0;-1.216791076E1;-9.844782747E0;1.619445884E1
9.090383792E0;-4.551441674E0;-1.186643534E1;-1.001254521E1;1.617958499E1
9.100367792E0;-4.858750278E0;-1.153882286E1;-1.006487428E1;1.606404624E1
9.110351792E0;-4.947244964E0;-1.103160497E1;-1.002184696E1;1.570378800E1
9.120335792E0;-4.655589648E0;-1.063562100E1;-9.652187743E0;1.509820113E1
9.130319792E0;-4.010484179E0;-1.039961919E1;-9.078535541E0;1.437553026E1
9.140303792E0;-3.313607755E0;-1.011826521E1;-8.539822208E0;1.364873073E1
9.150287792E0;-2.679165268E0;-9.767380815E0;-8.072986357E0;1.295194052E1
9.160272792E0;-2.098381949E0;-9.343636020E0;-7.488317417E0;1.215654715E1
9.170256792E0;-1.611681207E0;-8.808895285E0;-6.986133978E0;1.135782639E1
9.180240792E0;-1.057557244E0;-8.282465197E0;-6.419603101E0;1.053228185E1
9.190224792E0;-3.588512260E-1;-7.843634001E0;-5.618891237E0;9.655221762E0
9.200208792E0;2.293110602E-1;-7.364596181E0;-4.917646943E0;8.858505061E0
9.210192792E0;7.369509012E-1;-6.813613050E0;-4.286080409E0;8.083248400E0
9.220176792E0;1.215470000E0;-6.086702403E0;-3.529586359E0;7.140258632E0
9.230160792E0;1.587542439E0;-5.154161553E0;-2.843826662E0;6.096968295E0
9.240144792E0;1.881098100E0;-4.058238389E0;-2.179499933E0;4.975746059E0
9.250129792E0;2.138163627E0;-2.916589413E0;-1.399747413E0;3.877825463E0
9.260113792E0;2.306770137E0;-1.847618989E0;-5.444558841E-1;3.005214901E0
9.270097792E0;2.286756287E0;-6.930301255E-1;4.186887074E-1;2.425870010E0
9.280081792E0;2.222820492E0;5.851776481E-1;1.742366184E0;2.884302990E0
9.290065792E0;2.209829002E0;1.885356919E0;3.506185802E0;4.553158663E0
9.300049792E0;1.857968415E0;3.667515160E0;5.564608610E0;6.918640261E0
9.310033792E0;1.256429673E0;5.611441884E0;7.720483453E0;9.626669221E0
9.320017792E0;5.671135524E-1;7.753600913E0;9.586628176E0;1.234274624E1
9.330001792E0;-2.272045277E-1;1.031418436E1;1.191425621E1;1.576018787E1
9.339985792E0;-5.912675232E-1;1.277996104E1;1.557537334E1;2.015612206E1
9.349970792E0;-8.040930167E-2;1.463791733E1;2.012991463E1;2.488952696E1
9.359954792E0;1.376536745E0;1.553432238E1;2.485002099E1;2.933826117E1
9.369938792E0;3.325326452E0;1.537172184E1;2.784985078E1;3.198377427E1
9.379922792E0;4.704303386E0;1.501765188E1;2.836629558E1;3.243928272E1
9.389906792E0;4.541699043E0;1.529562150E1;2.662695708E1;3.104155136E1
9.399890792E0;3.381837745E0;1.554370132E1;2.326218619E1;2.818107137E1
9.409874792E0;2.120458404E0;1.486412271E1;1.930224593E1;2.445434901E1
9.419858792E0;8.048250881E-1;1.369053507E1;1.537908115E1;2.060569414E1
9.429842792E0;-4.849901395E-1;1.247280096E1;1.178063096E1;1.716360233E1
9.439826792E0;-1.432817365E0;1.063790025E1;8.648086329E0;1.378431298E1
9.449811792E0;-2.175913543E0;8.814811497E0;6.064129227E0;1.091829496E1
9.459795792E0;-2.591968665E0;6.825315667E0;4.089767160E0;8.368358916E0
9.469779792E0;-2.587840823E0;4.762708592E0;2.555162489E0;5.992425936E0
9.479763792E0;-2.412207129E0;2.633176625E0;1.195662045E0;3.765895657E0
9.489747792E0;-1.952576218E0;4.039987475E-1;-2.196950948E-1;2.005999703E0
9.499731792E0;-1.226749060E0;-1.730891608E0;-1.682525779E0;2.707728201E0
9.509715792E0;-7.167321065E-1;-3.638267387E0;-3.156263859E0;4.869568363E0
9.519699792E0;-3.407233956E-1;-5.295112195E0;-4.528497199E0;6.975786155E0
9.529683792E0;-1.002256617E-1;-6.603664679E0;-5.737423654E0;8.748512020E0
9.539667792E0;-1.022628316E-1;-7.518245806E0;-6.778049700E0;1.012306453E1
9.549652792E0;-2.717750752E-1;-8.153652205E0;-7.620270948E0;1.116353149E1
9.559636792E0;-5.756268060E-1;-8.649375640E0;-8.380898395E0;1.205746669E1
9.569620792E0;-9.306390426E-1;-8.823924383E0;-9.118717607E0;1.272315768E1
9.579604792E0;-1.243182952E0;-8.703921976E0;-9.860976026E0;1.321145752E1
9.589588792E0;-1.364855323E0;-8.571657958E0;-1.050104500E1;1.362380623E1
9.599572792E0;-1.334774030E0;-8.541496850E0;-1.073172467E1;1.378073672E1
9.609556792E0;-1.270032489E0;-8.470057908E0;-1.081871487E1;1.379853089E1
9.619540792E0;-1.297587493E0;-8.503137361E0;-1.054022368E1;1.360453577E1
9.629524792E0;-1.217150855E0;-8.587247220E0;-1.034779181E1;1.350181715E1
9.639508792E0;-1.124292685E0;-8.598281500E0;-1.049977732E1;1.361762837E1
9.649493792E0;-1.078301703E0;-8.705652752E0;-1.049375937E1;1.367735757E1
9.659477792E0;-8.548401242E-1;-8.853506616E0;-1.016798876E1;1.350937920E1
9.669461792E0;-5.982414973E-1;-8.894183357E0;-9.938473853E0;1.335056752E1
9.679445792E0;-4.710537395E-1;-8.907778133E0;-9.729966236E0;1.320010022E1
9.689429792E0;-4.003255266E-1;-8.859045099E0;-9.428286746E0;1.294355174E1
9.699413792E0;-3.434555072E-1;-8.775590714E0;-9.194868236E0;1.271513098E1
9.709397792E0;-3.726579639E-1;-8.590913424E0;-9.044962583E0;1.248014485E1
9.719381792E0;-4.631073734E-1;-8.311787814E0;-8.775725784E0;1.209601786E1
9.729365792E0;-5.163778469E-1;-8.012812076E0;-8.440323647E0;1.164950071E1
9.739349792E0;-5.268469942E-1;-7.746944443E0;-8.234242040E0;1.131792640E1
9.749333792E0;-4.457592693E-1;-7.504130042E0;-8.202595155E0;1.112624089E1
9.759318792E0;-2.864834538E-1;-7.270767666E0;-8.140934511E0;1.091883464E1
9.769302792E0;-1.527324888E-1;-6.894249662E0;-8.024566734E0;1.058053292E1
9.779286792E0;-2.067783031E-1;-6.448208265E0;-7.945262117E0;1.023471237E1
9.789270792E0;-2.655676893E-1;-5.973778051E0;-7.886353174E0;9.897025653E0
9.799254792E0;-2.505546525E-1;-5.380381556E0;-7.551970206E0;9.275965574E0
9.809238792E0;-3.032348678E-1;-4.626231655E0;-7.122270607E0;8.498276844E0
9.819222792E0;-5.111606687E-1;-3.631561216E0;-6.728324978E0;7.662889735E0
9.829206792E0;-8.813730347E-1;-2.180355381E0;-6.004258416E0;6.448401906E0
9.839190792E0;-1.195438536E0;-6.624591279E-1;-4.383603780E0;4.591721626E0
9.849174792E0;-1.315456876E0;4.571148545E-1;-8.186113608E-1;1.615396342E0
9.859159792E0;-6.636177537E-1;1.602510433E0;3.802589934E0;4.179487818E0
9.869143792E0;5.460920812E-1;3.215832369E0;8.589683754E0;9.188169643E0
9.879127792E0;1.373335833E0;4.820113631E0;1.430205443E1;1.515481137E1
9.889111792E0;1.899464496E0;6.353955241E0;1.979692505E1;2.087819327E1
9.899095792E0;2.253283316E0;7.667207133E0;2.364598807E1;2.495988988E1
9.909079792E0;2.515411363E0;9.194420339E0;2.716682349E1;2.879064011E1
9.919063792E0;2.739285170E0;1.046690544E1;2.997590541E1;3.186871033E1
9.929047792E0;3.661874351E0;1.078990914E1;3.112583521E1;3.314587577E1
9.939031792E0;4.763763722E0;1.019150860E1;3.111468574E1;3.308600854E1
9.949015292E0;5.138107438E0;9.899757099E0;2.966113810E1;3.168893264E1
9.958999292E0;4.763582166E0;1.043682503E1;2.680333483E1;2.915540756E1
9.968984292E0;3.963250955E0;1.099202985E1;2.325531454E1;2.602578976E1
9.978968292E0;3.415080335E0;1.114568532E1;1.950629972E1;2.272410183E1
9.988952292E0;3.037075970E0;1.099875999E1;1.638808720E1;1.996912502E1
9.998936292E0;2.989379939E0;1.038797739E1;1.418208944E1;1.783194122E1
1.000892029E1;3.290916465E0;9.127125319E0;1.269141900E1;1.597518901E1
1.001890429E1;3.538249009E0;7.543951335E0;1.164655898E1;1.432036116E1
1.002888829E1;3.421647928E0;5.778409712E0;1.022754031E1;1.223520634E1
1.003887229E1;2.935520359E0;3.876404600E0;8.138106213E0;9.480114194E0
1.004885629E1;2.157948704E0;1.947387691E0;5.728506065E0;6.423771724E0
1.005884029E1;1.407950911E0;1.994192898E-1;3.002452852E0;3.322170517E0
1.006882529E1;6.740014585E-1;-1.376472864E0;1.192323285E-1;1.537261155E0
1.007880929E1;1.147942919E-1;-3.024336056E0;-2.455563356E0;3.897380878E0
1.008879329E1;-8.944675818E-2;-4.485360535E0;-5.117560907E0;6.805577822E0
1.009877729E1;-2.631437078E-1;-5.697460274E0;-7.584144511E0;9.489443932E0
1.010876129E1;-5.248261964E-1;-6.621945999E0;-9.656980705E0;1.172104465E1
1.011874529E1;-1.069588182E0;-7.100961599E0;-1.134363345E1;1.342556123E1
1.012872929E1;-1.816624361E0;-7.559410204E0;-1.234271327E1;1.458723338E1
1.013871329E1;-2.479493379E0;-7.997080142E0;-1.300533028E1;1.546737838E1
1.014869729E1;-2.803914445E0;-8.237314752E0;-1.328087681E1;1.587756213E1
1.015868129E1;-2.786560201E0;-8.634690943E0;-1.336712558E1;1.615558268E1
1.016866529E1;-2.775625031E0;-9.149999626E0;-1.344003217E1;1.649427331E1
1.017864929E1;-2.749548495E0;-9.585580355E0;-1.336251563E1;1.667333775E1
1.018863429E1;-2.663168456E0;-9.941674619E0;-1.320055243E1;1.673869604E1
1.019861829E1;-2.608455766E0;-1.034223696E1;-1.284455991E1;1.669576671E1
1.020860229E1;-2.614863438E0;-1.070644950E1;-1.240703031E1;1.659517920E1
1.021858629E1;-2.708215113E0;-1.091017701E1;-1.194653401E1;1.640384304E1
1.022857029E1;-2.830417242E0;-1.095926088E1;-1.143337535E1;1.608846583E1
1.023855429E1;-2.939477170E0;-1.086326012E1;-1.098286960E1;1.572496013E1
1.024853829E1;-2.995752527E0;-1.059489047E1;-1.054271927E1;1.524385669E1
1.025852229E1;-2.976668092E0;-1.031055323E1;-1.004838163E1;1.470163373E1
1.026850629E1;-2.927036633E0;-9.984663348E0;-9.426798044E0;1.404014127E1
1.027849029E1;-2.895629484E0;-9.639792815E0;-8.769710754E0;1.334983529E1
1.028847429E1;-2.814966559E0;-9.225001277E0;-8.212833045E0;1.266788506E1
1.029845929E1;-2.709942380E0;-8.697150316E0;-7.856524773E0;1.202951341E1
1.030844329E1;-2.547642385E0;-8.052853809E0;-7.562133252E0;1.133687768E1
1.031842729E1;-2.351751013E0;-7.336678650E0;-7.240662106E0;1.057283189E1
1.032841129E1;-2.177126548E0;-6.605025911E0;-7.042487689E0;9.897619923E0
1.033839529E1;-1.926434779E0;-5.953739058E0;-6.920446358E0;9.330098473E0
1.034837929E1;-1.728468229E0;-5.244358363E0;-6.711685556E0;8.691238120E0
1.035836329E1;-1.516504762E0;-4.567097594E0;-6.255762949E0;7.892574814E0
1.036834729E1;-1.271527768E0;-3.859882708E0;-5.622284961E0;6.937259225E0
1.037833129E1;-1.088124441E0;-3.120187123E0;-4.980778161E0;5.977268069E0
1.038831529E1;-9.029868288E-1;-2.116160554E0;-4.642728404E0;5.181548778E0
1.039829929E1;-8.492023851E-1;-8.345526248E-1;-3.881689898E0;4.060189557E0
1.040828429E1;-1.201757622E0;6.710592127E-1;-2.362474514E0;2.734195983E0
1.041826829E1;-1.761768707E0;2.671067167E0;-4.025164783E-1;3.224972605E0
1.042825229E1;-1.873259615E0;4.886318731E0;2.613757437E0;5.849524789E0
1.043823629E1;-1.552090770E0;7.141026136E0;6.695115132E0;9.910994232E0
1.044822029E1;-1.179087382E0;9.731053233E0;1.204706402E1;1.553111057E1
1.045820429E1;-6.188915241E-1;1.227621055E1;1.899956247E1;2.262900233E1
1.046818829E1;5.191907962E-1;1.394842535E1;2.551530549E1;2.908365423E1
1.047817229E1;1.957014547E0;1.527729048E1;3.131356124E1;3.489648446E1
1.048815629E1;3.367183453E0;1.558131295E1;3.566587540E1;3.906622461E1
1.049814029E1;4.496400079E0;1.492688438E1;3.816209386E1;4.122347510E1
1.050812529E1;5.222071116E0;1.392389277E1;3.895556804E1;4.169749511E1
1.051810929E1;5.623626312E0;1.280399661E1;3.753869881E1;4.005897416E1
1.052809329E1;6.090753354E0;1.178514969E1;3.412520658E1;3.661306807E1
1.053807729E1;6.831438872E0;1.029566272E1;2.876513884E1;3.130658781E1
1.054806129E1;7.494752862E0;8.460691254E0;2.313876316E1;2.575183445E1
1.055804529E1;7.570541548E0;6.408370600E0;1.799467519E1;2.054722970E1
1.056802929E1;7.287068533E0;5.419698819E0;1.222421243E1;1.522845602E1
1.057801329E1;6.852076035E0;3.998541825E0;6.427755874E0;1.021054985E1
1.058799729E1;5.886296103E0;2.348528320E0;5.903097492E-1;6.364945615E0
1.059798129E1;4.700727814E0;1.068841200E0;-4.175619197E0;6.377700147E0
1.060796529E1;3.366413082E0;-3.880054432E-1;-7.535590986E0;8.262470380E0
1.061795029E1;1.365289772E0;-2.120157711E0;-9.242978541E0;9.580800446E0
1.062793429E1;-8.624821427E-1;-3.268161440E0;-1.037577776E1;1.091244788E1
1.063791829E1;-2.974014626E0;-4.324027085E0;-1.031288744E1;1.157141394E1
1.064790229E1;-4.851742975E0;-5.530852050E0;-9.465009599E0;1.198816671E1
1.065788629E1;-6.204518536E0;-6.607585822E0;-8.095473579E0;1.215289814E1
1.066787029E1;-7.052119807E0;-7.500003662E0;-6.818366836E0;1.234797858E1
1.067785429E1;-7.528002470E0;-8.228045161E0;-6.044065676E0;1.268472618E1
1.068783829E1;-7.714161444E0;-8.762173108E0;-5.721830299E0;1.300089637E1
1.069782229E1;-7.776175843E0;-9.334210893E0;-5.859198936E0;1.348801749E1
1.070780629E1;-7.722137046E0;-9.825799177E0;-6.180104656E0;1.394171523E1
1.071779129E1;-7.643178585E0;-1.009664688E1;-6.535693721E0;1.425046489E1
1.072777529E1;-7.742411681E0;-1.021952846E1;-6.995721073E0;1.460560899E1
1.073775929E1;-7.897347693E0;-1.025005443E1;-7.490965036E0;1.495146393E1
1.074774329E1;-8.066708786E0;-1.016716664E1;-7.685312451E0;1.508333835E1
1.075772729E1;-8.237253356E0;-1.003372617E1;-7.628867524E0;1.505747732E1
1.076771129E1;-8.276887538E0;-9.913935428E0;-7.465846567E0;1.491750140E1
1.077769529E1;-8.181403091E0;-9.794748123E0;-7.152955041E0;1.463001070E1
1.078767929E1;-7.930817741E0;-9.698415245E0;-6.582519393E0;1.415226801E1
1.079766329E1;-7.418294671E0;-9.707595373E0;-5.944268907E0;1.358686265E1
1.080764729E1;-6.797641965E0;-9.678021326E0;-5.425430844E0;1.301181513E1
1.081763229E1;-6.244138100E0;-9.540511186E0;-5.073979855E0;1.248021978E1
1.082761629E1;-5.701752130E0;-9.395920068E0;-4.668311727E0;1.194095581E1
1.083760029E1;-5.235850664E0;-9.254748402E0;-4.257191071E0;1.145374070E1
1.084758429E1;-4.729513364E0;-9.022275971E0;-3.924738269E0;1.091665383E1
1.085756829E1;-4.327688319E0;-8.580410655E0;-3.756411256E0;1.031808891E1
1.086755229E1;-4.055085863E0;-8.323073525E0;-3.644613955E0;9.949898750E0
1.087753629E1;-3.712821141E0;-8.250596702E0;-3.578960248E0;9.729663058E0
1.088752029E1;-3.324823884E0;-7.962315522E0;-3.467058574E0;9.299108424E0
1.089750429E1;-2.999000948E0;-7.548430887E0;-3.402001868E0;8.806045210E0
1.090748829E1;-2.763403473E0;-7.031820028E0;-3.397747434E0;8.284176440E0
1.091747229E1;-2.624287103E0;-6.540337579E0;-3.360533999E0;7.807437941E0
1.092745729E1;-2.534415106E0;-6.000660040E0;-3.250859529E0;7.280059651E0
1.093744129E1;-2.313136585E0;-5.214245787E0;-3.089237811E0;6.487091046E0
1.094742542E1;-1.902913477E0;-4.635823427E0;-2.921584105E0;5.800654466E0
1.095740942E1;-1.200769004E0;-4.349874701E0;-2.713989238E0;5.265832670E0
1.096739342E1;-3.646893784E-1;-3.863985114E0;-2.481724384E0;4.606770585E0
1.097737742E1;1.052516359E-1;-3.250780592E0;-2.368277875E0;4.023355870E0
1.098736142E1;1.941325298E-1;-2.325169863E0;-1.941935747E0;3.035657552E0
1.099734542E1;1.789448257E-1;-9.573576021E-1;-5.511912918E-1;1.119091895E0
1.100732942E1;3.243368661E-1;4.234477562E-1;1.398617731E0;1.496874732E0
1.101731342E1;8.469702105E-1;1.942408202E0;3.795945743E0;4.347356927E0
1.102729842E1;1.793163578E0;3.303687369E0;6.988412054E0;7.935218263E0
1.103728242E1;3.219292166E0;4.322033769E0;1.043204434E1;1.174186387E1
1.104726642E1;4.660164217E0;5.447685347E0;1.420844635E1;1.591459563E1
1.105725042E1;5.195207253E0;6.985558612E0;1.751833996E1;1.956221977E1
1.106723442E1;5.293352768E0;8.677645758E0;1.988536536E1;2.233268624E1
1.107721842E1;5.883130420E0;9.654863428E0;2.164774890E1;2.442237998E1
1.108720242E1;6.948624090E0;8.981752428E0;2.260186948E1;2.529426333E1
1.109718642E1;7.846997904E0;7.702913740E0;2.325737510E1;2.572577993E1
1.110717042E1;7.634576161E0;6.174226450E0;2.359541901E1;2.555683125E1
1.111715442E1;5.814410434E0;5.050802661E0;2.336010834E1;2.459700465E1
1.112713942E1;3.010049554E0;5.724803023E0;2.293022339E1;2.382496406E1
1.113712342E1;7.083249798E-1;6.813596678E0;2.160652837E1;2.266647066E1
1.114710742E1;-4.134747452E-1;6.816492219E0;1.946559258E1;2.062873777E1
1.115709142E1;-7.057025036E-1;6.572424760E0;1.723660590E1;1.846064371E1
1.116707542E1;-3.095490019E-1;6.041259597E0;1.458529472E1;1.578997974E1
1.117705942E1;6.717532041E-1;4.829060456E0;1.129928817E1;1.230629881E1
1.118704342E1;1.818725558E0;3.923602155E0;8.020870124E0;9.112451595E0
1.119702742E1;2.503449129E0;3.232344906E0;4.504477422E0;6.083225130E0
1.120701142E1;2.338207545E0;2.501492066E0;1.494031427E0;3.735881019E0
1.121699542E1;1.885426501E0;1.622915754E0;-4.903247005E-1;2.535568368E0
1.122698042E1;1.589159486E0;5.854284936E-1;-1.449881440E0;2.229419338E0
1.123696442E1;1.189609446E0;-4.030129069E-1;-1.650069054E0;2.073720792E0
1.124694842E1;5.974945155E-1;-1.403323570E0;-1.797876141E0;2.357684321E0
1.125693242E1;8.419581234E-2;-2.258337942E0;-2.155976585E0;3.123365849E0
1.126691642E1;-3.757077254E-1;-2.933220064E0;-2.543965656E0;3.900858559E0
1.127690042E1;-8.025468667E-1;-3.372884488E0;-3.233856411E0;4.741124184E0
1.128688442E1;-1.199463613E0;-3.748097978E0;-4.072427827E0;5.663181069E0
1.129686842E1;-1.631193658E0;-4.479034140E0;-4.830710540E0;6.786626843E0
1.130685242E1;-2.020834859E0;-4.826955459E0;-6.053248728E0;8.001568139E0
1.131683642E1;-2.426555319E0;-4.856397359E0;-7.361043997E0;9.146460231E0
1.132682042E1;-2.603968321E0;-5.048773677E0;-8.572719228E0;1.028407904E1
1.133680542E1;-2.679269349E0;-5.660670762E0;-9.512272058E0;1.138881018E1
1.134678942E1;-2.869854080E0;-6.137937461E0;-1.023856582E1;1.227756364E1
1.135677342E1;-3.201359925E0;-6.117956940E0;-1.054283622E1;1.260275755E1
1.136675742E1;-3.531369760E0;-5.959202111E0;-1.031982692E1;1.242905828E1
1.137674142E1;-3.558642928E0;-6.031918670E0;-9.929664438E0;1.215097602E1
1.138672542E1;-3.211524433E0;-6.313334634E0;-9.571976808E0;1.190776316E1
1.139670942E1;-2.749250872E0;-6.315332043E0;-9.185620279E0;1.148117673E1
1.140669342E1;-2.297932509E0;-6.026814635E0;-8.840340441E0;1.094324484E1
1.141667742E1;-1.880198798E0;-6.004623283E0;-8.820061128E0;1.083439553E1
1.142666142E1;-1.661018843E0;-6.200619028E0;-8.782368806E0;1.087826557E1
1.143664542E1;-1.504424268E0;-6.291176611E0;-8.568538468E0;1.073601635E1
1.144663042E1;-1.470061936E0;-6.300274293E0;-8.109457780E0;1.037390205E1
1.145661442E1;-1.717900557E0;-6.123703583E0;-7.687456040E0;9.977369807E0
1.146659842E1;-2.122184356E0;-5.744137427E0;-7.490762722E0;9.675241980E0
1.147658242E1;-2.450987910E0;-5.483993633E0;-7.270997461E0;9.431274144E0
1.148656642E1;-2.567776395E0;-5.482494407E0;-7.064876093E0;9.303961239E0
1.149655042E1;-2.463746242E0;-5.414820487E0;-7.041332279E0;9.217954584E0
1.150653442E1;-2.328451028E0;-5.184271206E0;-6.885063686E0;8.927623093E0
1.151651842E1;-2.225386835E0;-4.934010376E0;-6.525939395E0;8.478483941E0
1.152650242E1;-2.105165158E0;-4.550089797E0;-6.052326037E0;7.859114961E0
1.153648642E1;-1.881235217E0;-3.863024417E0;-5.520369746E0;6.995461794E0
1.154647042E1;-1.554256579E0;-3.078728610E0;-5.158343482E0;6.205061712E0
1.155645442E1;-1.480191360E0;-2.183216423E0;-4.761005883E0;5.442846445E0
1.156643942E1;-1.564410853E0;-1.200195392E0;-4.361033528E0;4.786069758E0
1.157642342E1;-1.656869951E0;-1.622631580E-1;-3.383318260E0;3.770728022E0
1.158640742E1;-2.004786884E0;2.418770921E0;-1.907161771E0;3.675172001E0
1.159639142E1;-2.485038586E0;5.061408341E0;7.121733248E-2;5.639001957E0
1.160637542E1;-2.932043604E0;6.617145435E0;2.260022525E0;7.582294851E0
1.161635942E1;-3.285500774E0;7.937299379E0;5.024274428E0;9.951812413E0
1.162634342E1;-3.961175779E0;9.665159791E0;8.632542676E0;1.355090478E1
1.163632742E1;-5.233363259E0;1.196423938E1;1.267224013E1;1.819661465E1
1.164631142E1;-6.411055056E0;1.457559302E1;1.675836330E1;2.311692626E1
1.165629542E1;-6.715475721E0;1.604001181E1;2.066217263E1;2.700564702E1
1.166628042E1;-5.987803767E0;1.626536116E1;2.415656460E1;2.973138714E1
1.167626442E1;-4.401623145E0;1.561562558E1;2.628464471E1;3.088858358E1
1.168624842E1;-2.372782862E0;1.442676267E1;2.700203492E1;3.070621223E1
1.169623242E1;-1.630384257E-1;1.295991378E1;2.641938327E1;2.942736412E1
1.170621642E1;1.753922036E0;1.106708938E1;2.427922515E1;2.674018482E1
1.171620042E1;3.005863532E0;9.436126692E0;2.112938154E1;2.333509089E1
1.172618442E1;3.262713590E0;8.840818743E0;1.731079187E1;1.970961418E1
1.173616842E1;2.657377958E0;8.216318570E0;1.288372456E1;1.550999378E1
1.174615242E1;1.713517191E0;7.290363439E0;8.628190593E0;1.142502574E1
1.175613642E1;6.450727245E-1;6.355216486E0;5.265453363E0;8.278278476E0
1.176612042E1;5.795402013E-2;5.193139678E0;2.741272346E0;5.872532031E0
1.177610542E1;1.769301675E-2;3.623625374E0;7.852711219E-1;3.707778935E0
1.178608942E1;3.510804956E-1;1.893752351E0;-8.807199007E-1;2.117834513E0
1.179607342E1;5.432001945E-1;3.326785040E-1;-2.332128634E0;2.417553599E0
1.180605742E1;5.878606430E-1;-1.239931315E0;-3.352546703E0;3.622510068E0
1.181604142E1;7.456489268E-1;-2.588398063E0;-4.174246563E0;4.967910146E0
1.182602542E1;8.931333934E-1;-3.796897085E0;-4.759810712E0;6.153853488E0
1.183600942E1;6.989489695E-1;-5.150408810E0;-5.163986630E0;7.326800017E0
1.184599342E1;4.134721139E-1;-6.607562433E0;-5.639103892E0;8.696570197E0
1.185597742E1;1.170869851E-1;-7.863965939E0;-6.122130682E0;9.966752417E0
1.186596142E1;-2.794425291E-1;-8.894809009E0;-6.531473200E0;1.103883407E1
1.187594542E1;-7.251941970E-1;-9.735542725E0;-7.175489041E0;1.211587148E1
1.188592942E1;-1.218227620E0;-1.031640396E1;-7.994082860E0;1.310792241E1
1.189591442E1;-1.824317689E0;-1.052001687E1;-8.696461514E0;1.377052406E1
1.190589842E1;-2.511620028E0;-1.052661136E1;-9.283499161E0;1.425837083E1
1.191588242E1;-3.278626787E0;-1.068618889E1;-9.895505004E0;1.492866524E1
1.192586642E1;-3.634497687E0;-1.099086391E1;-1.029508501E1;1.549185071E1
1.193585042E1;-3.997851269E0;-1.134589281E1;-1.028893842E1;1.582954049E1
1.194583442E1;-4.548991690E0;-1.133524153E1;-1.026691429E1;1.595589405E1
1.195581879E1;-4.711744845E0;-1.110430457E1;-1.039679850E1;1.592480890E1
1.196580279E1;-4.432516032E0;-1.071759780E1;-9.812846425E0;1.519230252E1
1.197578679E1;-4.115151385E0;-1.025467958E1;-8.910065564E0;1.419444231E1
1.198577079E1;-3.773304447E0;-9.757390262E0;-8.111638207E0;1.323794416E1
1.199575479E1;-3.401991635E0;-9.362683325E0;-7.286662737E0;1.234215702E1
1.200573979E1;-3.081748990E0;-8.903916047E0;-5.875633705E0;1.110405193E1
1.201572379E1;-2.372373996E0;-8.407232500E0;-4.699192335E0;9.919280482E0
1.202570779E1;-1.919734016E0;-8.088536443E0;-4.506219308E0;9.455993492E0
1.203569179E1;-1.695903624E0;-7.776178767E0;-3.698985459E0;8.776533413E0
1.204567579E1;-1.479267646E0;-7.143234045E0;-3.044891066E0;7.904769889E0
1.205565979E1;-1.378839817E0;-6.533951250E0;-2.718333135E0;7.209927407E0
1.206564379E1;-1.099277566E0;-6.070453575E0;-2.520654269E0;6.664271582E0
1.207562779E1;-8.825223780E-1;-5.708665293E0;-2.219750996E0;6.188295376E0
1.208561179E1;-7.009543452E-1;-5.265364485E0;-1.732846332E0;5.587321055E0
1.209559579E1;-5.203077605E-1;-4.725306877E0;-1.214895877E0;4.906650307E0
1.210557979E1;-2.995718613E-1;-4.277433547E0;-7.901354206E-1;4.360102640E0
1.211556479E1;-1.071180671E-2;-3.868955832E0;-1.636659050E-1;3.872430826E0
1.212554879E1;2.330726472E-1;-3.292176540E0;6.996357250E-1;3.373757457E0
1.213553279E1;5.236304408E-1;-2.631803114E0;1.383769312E0;3.019171074E0
1.214551679E1;6.135544780E-1;-1.902785715E0;1.756687185E0;2.661389193E0
1.215550079E1;5.241824180E-1;-9.669634080E-1;1.968704301E0;2.255123514E0
1.216548479E1;1.988047475E-1;4.336055392E-1;2.007797615E0;2.063683201E0
1.217546879E1;-4.850668476E-1;2.141098929E0;2.129897418E0;3.058767314E0
1.218545279E1;-1.414751953E0;3.781961542E0;2.879861298E0;4.959673103E0
1.219543679E1;-2.486266209E0;5.846478319E0;4.380628132E0;7.717041611E0
1.220542079E1;-3.495172864E0;8.584927629E0;7.327235981E0;1.181548149E1
1.221540479E1;-3.695383867E0;1.051200034E1;1.101149523E1;1.566560054E1
1.222538979E1;-2.776817863E0;1.141446896E1;1.437991712E1;1.856832883E1
1.223537379E1;-1.262647456E0;1.132059776E1;1.723434303E1;2.065847990E1
1.224535779E1;1.414777681E-1;1.083684825E1;1.944729781E1;2.226330362E1
1.225534179E1;9.777193612E-1;1.042504990E1;2.062101525E1;2.312712413E1
1.226532579E1;1.061989433E0;1.035956694E1;2.021859116E1;2.274290828E1
1.227530979E1;3.547002876E-1;1.101142272E1;1.845775011E1;2.149571543E1
1.228529379E1;-8.013489184E-1;1.115503969E1;1.581876720E1;1.937293128E1
1.229527779E1;-1.868377190E0;1.150411379E1;1.263560264E1;1.718993664E1
1.230526179E1;-2.409752468E0;1.184751492E1;9.809431651E0;1.556905476E1
1.231524579E1;-2.335290223E0;1.115313467E1;7.397775037E0;1.358576715E1
1.232522979E1;-1.556936942E0;9.705179304E0;5.785683648E0;1.140564304E1
1.233521479E1;-4.225124940E-1;7.695235176E0;5.081953118E0;9.231544222E0
1.234519879E1;4.086718422E-1;5.784746924E0;4.432295299E0;7.299010294E0
1.235518279E1;8.448004550E-1;3.748191533E0;3.568112494E0;5.243477314E0
1.236516679E1;1.165298332E0;1.536044256E0;2.288689084E0;2.992565769E0
1.237515079E1;1.428161665E0;-6.287370658E-1;7.180527002E-1;1.717718173E0
1.238513479E1;1.606194179E0;-2.680057846E0;-1.000993034E0;3.280938410E0
1.239511879E1;1.817195634E0;-4.900896424E0;-2.835659856E0;5.946591675E0
1.240510279E1;2.077130390E0;-6.808531235E0;-4.758379313E0;8.562286022E0
1.241508679E1;2.141610560E0;-8.213971497E0;-6.510440181E0;1.069774064E1
1.242507079E1;1.996500502E0;-9.175371864E0;-8.059353574E0;1.237443506E1
1.243505479E1;1.544034769E0;-9.570154231E0;-9.561568764E0;1.361600134E1
1.244503979E1;7.123034254E-1;-9.502159299E0;-1.085547748E1;1.444436911E1
1.245502379E1;-5.153148596E-1;-9.340223000E0;-1.221136727E1;1.538254874E1
1.246500779E1;-1.739454563E0;-8.865395175E0;-1.354481544E1;1.628136847E1
1.247499179E1;-2.561240377E0;-8.465730384E0;-1.441879409E1;1.691538253E1
1.248497579E1;-2.136228783E0;-9.421492281E0;-1.443176555E1;1.736674544E1
1.249495979E1;-1.924975898E0;-1.000635886E1;-1.373261865E1;1.710022119E1
1.250494379E1;-1.626784565E0;-9.479646934E0;-1.288436776E1;1.607846592E1
1.251492779E1;-1.275570972E0;-8.418773149E0;-1.205015018E1;1.475496330E1
1.252491179E1;-9.339310250E-1;-7.633654640E0;-1.058029114E1;1.308004094E1
1.253489579E1;-6.875060416E-1;-7.225673938E0;-8.640351632E0;1.128444526E1
1.254487979E1;1.990935999E-1;-7.067323737E0;-7.901867006E0;1.060312243E1
1.255486379E1;3.717077914E-1;-6.803054733E0;-6.295099508E0;9.276206023E0
1.256484879E1;2.699039662E-1;-6.284217839E0;-4.931635821E0;7.992826401E0
1.257483279E1;-1.836547579E-1;-5.456583640E0;-4.179565775E0;6.875812981E0
1.258481679E1;-5.071306946E-1;-5.259755836E0;-3.619375618E0;6.404849168E0
1.259480079E1;-8.126255661E-1;-5.055126677E0;-3.150745257E0;6.011810186E0
1.260478479E1;-1.484546805E0;-4.075427449E0;-3.142085531E0;5.355902313E0
1.261476879E1;-2.103956831E0;-2.876566976E0;-3.576612006E0;5.049101441E0
1.262475279E1;-2.522029826E0;-2.168945709E0;-4.165395048E0;5.330616834E0
1.263473679E1;-2.641050485E0;-1.605063035E0;-4.679239588E0;5.607731996E0
1.264472079E1;-2.679175209E0;-9.970309603E-1;-5.040738434E0;5.794919714E0
1.265470479E1;-2.597194614E0;1.117858994E-1;-5.214831094E0;5.826867021E0
1.266468879E1;-2.674176716E0;1.447088810E0;-4.903389092E0;5.769619721E0
1.267467379E1;-3.218045540E0;3.234726477E0;-3.848661901E0;5.969210241E0
1.268465779E1;-4.301791001E0;6.177458791E0;-1.377352577E0;7.652679469E0
1.269464179E1;-5.829196873E0;9.937272835E0;1.919153826E0;1.167955817E1
1.270462579E1;-7.573331255E0;1.419988837E1;6.323334543E0;1.729094375E1
1.271460979E1;-8.592899138E0;1.869304675E1;1.334034650E1;2.452004806E1
1.272459379E1;-7.777828267E0;2.135480340E1;2.190479718E1;3.156489157E1
1.273457779E1;-5.577435063E0;2.145538486E1;2.994294582E1;3.725615823E1
1.274456179E1;-3.140899423E0;1.960755829E1;3.590666140E1;4.103181600E1
1.275454579E1;-1.785290156E0;1.718360089E1;3.812192583E1;4.185384844E1
1.276452979E1;-1.550139554E0;1.632492441E1;3.740110213E1;4.083807697E1
1.277451379E1;-6.873559874E-1;1.636745121E1;3.503254944E1;3.867357544E1
1.278449879E1;9.933849290E-1;1.391894837E1;3.159069119E1;3.453542685E1
1.279448279E1;3.003334904E0;1.126650049E1;2.809292421E1;3.041654886E1
1.280446679E1;5.180740657E0;9.318809912E0;2.434604480E1;2.657837823E1
1.281445079E1;6.861918653E0;6.520310866E0;1.951484601E1;2.168938902E1
1.282443479E1;7.771183491E0;3.478094609E0;1.399567670E1;1.638192300E1
1.283441879E1;8.277107978E0;1.133018485E0;8.581092440E0;1.197620119E1
1.284440279E1;8.033663832E0;-1.041319526E0;3.257439401E0;8.731266367E0
1.285438679E1;6.753226515E0;-3.192147637E0;-2.163308408E0;7.776617399E0
1.286437079E1;4.903944870E0;-4.870409042E0;-6.527156786E0;9.506489111E0
1.287435479E1;2.974810140E0;-6.159652265E0;-9.033785630E0;1.133137654E1
1.288433879E1;8.412528031E-1;-7.093401734E0;-1.006341599E1;1.234084259E1
1.289432279E1;-7.542130512E-1;-8.010656793E0;-1.005853239E1;1.288074274E1
1.290430779E1;-1.534899664E0;-9.356752494E0;-8.731187543E0;1.288946741E1
1.291429179E1;-1.771355217E0;-1.047062076E1;-6.941349569E0;1.268676209E1
1.292427579E1;-1.443867871E0;-1.143756195E1;-5.184266528E0;1.264037963E1
1.293425979E1;-7.184427094E-1;-1.221552815E1;-4.121684772E0;1.291214828E1
1.294424379E1;2.077878980E-1;-1.333322225E1;-3.624684305E0;1.381869486E1
1.295422854E1;1.083888498E0;-1.480450216E1;-3.847311194E0;1.533459820E1
1.296421254E1;1.616515100E0;-1.577596559E1;-4.698990898E0;1.654009452E1
1.297419654E1;1.667319802E0;-1.632163360E1;-5.738921710E0;1.738133772E1
1.298418054E1;1.250567108E0;-1.620972140E1;-6.834256060E0;1.763593042E1
1.299416454E1;3.209580526E-1;-1.511323982E1;-7.846689756E0;1.703183995E1
1.300414854E1;-6.864970315E-1;-1.420605133E1;-8.929920369E0;1.679364911E1
1.301413254E1;-1.697595516E0;-1.373214386E1;-9.997503834E0;1.707055033E1
1.302411654E1;-2.387039836E0;-1.333787313E1;-1.058619215E1;1.719489119E1
1.303410154E1;-2.662030003E0;-1.299769030E1;-1.067855243E1;1.703108449E1
1.304408554E1;-2.261162439E0;-1.299050174E1;-1.015417881E1;1.664251598E1
1.305406954E1;-1.775151230E0;-1.316144158E1;-9.380810863E0;1.625959159E1
1.306405354E1;-1.636906387E0;-1.281465140E1;-8.629710284E0;1.553597930E1
1.307403754E1;-1.582692465E0;-1.210646588E1;-7.875096699E0;1.452888776E1
1.308402154E1;-1.338311011E0;-1.155310644E1;-7.330372428E0;1.374771635E1
1.309400554E1;-1.113717119E0;-1.151772143E1;-6.963159099E0;1.350495677E1
1.310398954E1;-1.039075072E0;-1.136108037E1;-6.419723554E0;1.309070948E1
1.311397354E1;-1.178990172E0;-1.096833693E1;-6.153703893E0;1.263180527E1
1.312395754E1;-1.469184269E0;-1.054269120E1;-5.940916114E0;1.219021429E1
1.313394154E1;-1.603752967E0;-1.010278763E1;-5.735768892E0;1.172763345E1
1.314392554E1;-1.603866403E0;-9.762829927E0;-5.793949272E0;1.146538633E1
1.315390954E1;-1.464733953E0;-9.402589402E0;-5.973171694E0;1.123534214E1
1.316389454E1;-1.339122312E0;-8.960569720E0;-6.184654375E0;1.096973145E1
1.317387854E1;-1.367024933E0;-8.401648993E0;-6.432789157E0;1.066945356E1
1.318386254E1;-1.787293558E0;-7.491884218E0;-6.363951641E0;9.991127459E0
1.319384654E1;-2.574143136E0;-5.897628007E0;-5.524548751E0;8.481088839E0
1.320383054E1;-3.222201741E0;-3.780086925E0;-4.018006622E0;6.388741537E0
1.321381454E1;-3.669976253E0;-1.588042375E0;-1.511195928E0;4.274847064E0
1.322379854E1;-3.452155483E0;1.257696326E0;2.647071948E0;4.528373596E0
1.323378254E1;-2.385351453E0;5.301972148E0;7.958078629E0;9.855547965E0
1.324376654E1;-1.010875230E-1;8.181929925E0;1.318665243E1;1.551908497E1
1.325375054E1;3.486715744E0;9.586380839E0;1.815621856E1;2.082556498E1
1.326373454E1;6.667347289E0;9.194885777E0;2.449877875E1;2.700351096E1
1.327371854E1;7.877299930E0;1.073943715E1;2.696020627E1;3.007058508E1
1.328370354E1;6.830184644E0;1.483099706E1;2.502637769E1;2.988192558E1
1.329368754E1;3.526910966E0;2.087789045E1;2.208521185E1;3.059545707E1
1.330367154E1;1.526418570E0;2.527730043E1;2.250119212E1;3.387588401E1
1.331365554E1;3.091096348E0;2.494349224E1;2.273684193E1;3.389242781E1
1.332363954E1;6.859366343E0;2.162391799E1;2.452810838E1;3.341066950E1
1.333362354E1;9.879633322E0;1.946535401E1;2.570665212E1;3.372445884E1
1.334360754E1;1.126551348E1;1.733777326E1;2.357581681E1;3.135808211E1
1.335359154E1;1.031821075E1;1.550473196E1;1.978631586E1;2.717278936E1
1.336357554E1;7.904334531E0;1.494101243E1;1.486131254E1;2.250713147E1
1.337355954E1;4.960143921E0;1.350893693E1;1.064563494E1;1.790038960E1
1.338354354E1;2.038965613E0;1.154288083E1;6.902042831E0;1.360270833E1
1.339352754E1;-7.936142215E-1;8.962499301E0;4.020190557E0;9.854854101E0
1.340351154E1;-3.057983859E0;6.094563984E0;2.051046546E0;7.120517353E0
1.341349654E1;-4.430091776E0;3.193177332E0;6.897235250E-1;5.504344934E0
1.342348054E1;-5.164559072E0;2.924853283E-1;-6.113451076E-1;5.208834891E0
1.343346454E1;-5.550094652E0;-2.286539648E0;-1.998647307E0;6.326642495E0
1.344344854E1;-5.676192781E0;-4.332031923E0;-3.560040413E0;7.978693678E0
1.345343254E1;-5.452905157E0;-6.013889950E0;-5.084352815E0;9.578710275E0
1.346341654E1;-5.202042648E0;-7.219075356E0;-6.138266659E0;1.080993128E1
1.347340054E1;-5.122153895E0;-7.987453287E0;-7.296831629E0;1.196994663E1
1.348338454E1;-5.206279541E0;-8.603116563E0;-8.306767395E0;1.304305738E1
1.349336854E1;-5.546564687E0;-9.084732420E0;-9.093447111E0;1.399955440E1
1.350335254E1;-6.088111582E0;-9.304508207E0;-9.747859885E0;1.478714807E1
1.351333654E1;-6.585957556E0;-9.597267185E0;-1.020712651E1;1.548120816E1
1.352332054E1;-7.044912529E0;-1.006684012E1;-1.061435117E1;1.623688743E1
1.353330454E1;-7.353913903E0;-1.039991974E1;-1.091547927E1;1.677456610E1
1.354328854E1;-7.507356536E0;-1.058967943E1;-1.085616511E1;1.692211670E1
1.355327354E1;-7.301201838E0;-1.083752653E1;-1.079532600E1;1.694988475E1
1.356325754E1;-6.929989014E0;-1.112823372E1;-1.039532266E1;1.673096132E1
1.357324154E1;-6.395271083E0;-1.114907320E1;-9.531958464E0;1.600186106E1
1.358322554E1;-5.760407304E0;-1.095679920E1;-8.651830301E0;1.510257954E1
1.359320954E1;-5.086281227E0;-1.079421854E1;-8.018002065E0;1.437615275E1
1.360319354E1;-4.404969799E0;-1.066724625E1;-7.522616599E0;1.377619912E1
1.361317754E1;-3.762487683E0;-1.057949709E1;-7.058324872E0;1.326280597E1
1.362316154E1;-3.260753018E0;-1.042914062E1;-6.804613016E0;1.287253831E1
1.363314554E1;-2.685613870E0;-1.011696947E1;-6.601066761E0;1.237496163E1
1.364312954E1;-2.122130854E0;-9.666231000E0;-6.545567914E0;1.186524001E1
1.365311354E1;-1.682815509E0;-9.432769221E0;-6.562319017E0;1.161348501E1
1.366309754E1;-1.235360547E0;-9.300109347E0;-6.748039450E0;1.155656463E1
1.367308154E1;-8.845489499E-1;-8.689917310E0;-7.068463359E0;1.123655926E1
1.368306554E1;-8.453150100E-1;-7.913186631E0;-7.329130479E0;1.081892942E1
1.369305054E1;-8.180924204E-1;-7.090526074E0;-7.212167455E0;1.014693030E1
1.370303454E1;-5.377979520E-1;-6.040853215E0;-6.603748294E0;8.966081961E0
1.371301854E1;-2.164048666E-1;-4.819673921E0;-5.832198833E0;7.569057471E0
1.372300254E1;1.456444940E-1;-3.479317846E0;-4.559320797E0;5.737096053E0
1.373298654E1;6.918226755E-1;-1.662672143E0;-2.078447183E0;2.750098173E0
1.374297054E1;1.107516731E0;8.736909628E-3;6.940855479E-1;1.307067095E0
1.375295454E1;1.685283034E0;1.416228375E0;2.958142067E0;3.687341346E0
1.376293854E1;2.024786115E0;1.854057943E0;5.436684396E0;6.090552265E0
1.377292254E1;1.592533329E0;2.477113270E0;9.101329742E0;9.565900670E0
1.378290654E1;2.666988149E-1;5.496987315E0;1.242190445E1;1.358645311E1
1.379289054E1;-1.281291887E0;9.390463446E0;1.522737981E1;1.793587491E1
1.380287454E1;-2.779135991E0;1.305591220E1;1.827632505E1;2.263193534E1
1.381285854E1;-3.856437236E0;1.649665596E1;2.167918821E1;2.751361422E1
1.382284354E1;-3.598615371E0;1.916468433E1;2.532723097E1;3.196410153E1
1.383282754E1;-2.360414247E0;2.046214406E1;2.881919751E1;3.542339680E1
1.384281154E1;2.292245945E-1;2.029581885E1;3.084758727E1;3.692622979E1
1.385279554E1;2.415169329E0;1.975299141E1;3.107028198E1;3.689683096E1
1.386277954E1;3.683229844E0;1.830117922E1;2.896764896E1;3.446192144E1
1.387276354E1;3.445513046E0;1.729145863E1;2.478144251E1;3.041358240E1
1.388274754E1;1.416903729E0;1.722577335E1;2.052603308E1;2.683380178E1
1.389273154E1;-4.429131371E-1;1.645991206E1;1.739152788E1;2.394974153E1
1.390271554E1;-1.314862799E0;1.387278343E1;1.529664593E1;2.069227781E1
1.391269954E1;-1.649089353E0;1.067074055E1;1.356326926E1;1.733627620E1
1.392268354E1;-2.058416961E0;7.493446010E0;1.137286953E1;1.377428672E1
1.393266754E1;-2.741458873E0;4.270088274E0;8.352069867E0;9.772733583E0
1.394265154E1;-3.315433840E0;1.346844730E0;5.116027182E0;6.243382609E0
1.395263554E1;-3.372819876E0;-1.894580902E0;1.779400109E0;4.258123467E0
1.396261954E1;-2.950334572E0;-5.099419336E0;-1.268956309E0;6.026508256E0
1.397260454E1;-2.357038942E0;-7.660702105E0;-3.497212080E0;8.744854582E0
1.398258854E1;-2.092992716E0;-9.775474530E0;-5.456638604E0;1.138926800E1
1.399257254E1;-1.979559949E0;-1.139522226E1;-6.912040401E0;1.347390257E1
1.400255654E1;-1.954289744E0;-1.259895113E1;-7.824071556E0;1.495890750E1
1.401254054E1;-2.092952371E0;-1.346935128E1;-8.566633446E0;1.609941248E1
1.402252454E1;-2.323162806E0;-1.423930094E1;-9.156702290E0;1.708800672E1
1.403250854E1;-2.766866779E0;-1.479604358E1;-9.428749845E0;1.776175050E1
1.404249254E1;-3.415975544E0;-1.492768779E1;-9.543524841E0;1.804393577E1
1.405247654E1;-4.120441654E0;-1.472400588E1;-9.512975478E0;1.800752873E1
1.406246054E1;-4.852488203E0;-1.463305010E1;-9.469275143E0;1.809253904E1
1.407244454E1;-5.619139743E0;-1.448313334E1;-9.447518238E0;1.818217489E1
1.408242854E1;-6.242165834E0;-1.420878549E1;-9.311749399E0;1.809869875E1
1.409241254E1;-6.404965181E0;-1.381804531E1;-8.742807130E0;1.756128217E1
1.410239654E1;-6.058611209E0;-1.353083358E1;-7.891939019E0;1.679502690E1
1.411238054E1;-5.350471879E0;-1.334811277E1;-7.110501332E0;1.604240920E1
1.412236554E1;-4.462682694E0;-1.308842974E1;-6.434652665E0;1.525212394E1
1.413234954E1;-3.716945767E0;-1.267335110E1;-5.602640655E0;1.434639663E1
1.414233354E1;-3.120986438E0;-1.217144248E1;-4.822231785E0;1.345876992E1
1.415231754E1;-2.602989205E0;-1.167581962E1;-4.345321182E0;1.272722015E1
1.416230154E1;-2.057238747E0;-1.111008630E1;-4.042582469E0;1.200036341E1
1.417228554E1;-1.595606480E0;-1.046005835E1;-3.937326448E0;1.128987690E1
1.418226954E1;-1.318807038E0;-9.828387154E0;-3.964319242E0;1.067952588E1
1.419225354E1;-1.101551987E0;-9.223176945E0;-3.919680428E0;1.008188000E1
1.420223754E1;-9.998285607E-1;-8.521492356E0;-3.771987362E0;9.372479810E0
1.421222154E1;-1.082750557E0;-7.683362405E0;-3.437296246E0;8.486543000E0
1.422220554E1;-1.123184930E0;-6.897221802E0;-3.140584550E0;7.661363083E0
1.423218954E1;-1.082239657E0;-6.313719966E0;-2.958588502E0;7.056029223E0
1.424217354E1;-9.263860703E-1;-5.859674900E0;-2.737042471E0;6.533405128E0
1.425215754E1;-6.355821088E-1;-5.348636438E0;-2.447515249E0;5.916266327E0
1.426214154E1;-3.749173281E-1;-4.892922576E0;-2.355837339E0;5.443456981E0
1.427212554E1;-2.587770072E-1;-4.485047125E0;-2.323760684E0;5.057912313E0
1.428210954E1;-1.068417862E-2;-3.976548108E0;-2.012027491E0;4.456602252E0
1.429209454E1;4.652464311E-1;-3.227456633E0;-1.631460291E0;3.646175152E0
1.430207854E1;1.214236311E0;-2.508635024E0;-1.336716183E0;3.091024047E0
1.431206254E1;1.831605220E0;-1.753539044E0;-1.232149841E0;2.819196710E0
1.432204654E1;2.179061392E0;-4.957234347E-1;-1.169310983E0;2.522169394E0
1.433203054E1;2.382975144E0;8.996742350E-1;-8.085833859E-1;2.672413022E0
1.434201454E1;2.271928917E0;2.522529763E0;-2.150939208E-1;3.401629434E0
1.435199854E1;1.831058505E0;4.498399826E0;4.911854106E-1;4.881561160E0
1.436198254E1;1.160151028E0;6.829551975E0;1.949982101E0;7.196607588E0
1.437196654E1;4.761446178E-1;9.883092535E0;5.037016096E0;1.110287183E1
1.438195054E1;-2.509013924E-1;1.359122596E1;9.839592758E0;1.678099998E1
1.439193454E1;-8.283931679E-1;1.745873929E1;1.620763745E1;2.383655437E1
1.440191854E1;-2.332354921E-1;1.940786886E1;2.337701381E1;3.038428125E1
1.441190254E1;1.863322856E0;1.980925098E1;3.000364928E1;3.600135229E1
1.442188654E1;4.956468946E0;1.844403839E1;3.562170085E1;4.041849463E1
1.443187054E1;7.584450320E0;1.622158657E1;3.757916622E1;4.162760492E1
1.444185454E1;8.117468466E0;1.481188135E1;3.468636621E1;3.858016490E1
1.445183954E1;6.623224200E0;1.509303653E1;2.932347309E1;3.363826577E1
1.446182354E1;4.295410227E0;1.542212952E1;2.312917139E1;2.812918764E1
1.447180754E1;2.277473101E0;1.383651198E1;1.828483742E1;2.304281292E1
1.448179154E1;1.008979161E0;1.123236795E1;1.482231980E1;1.862485686E1
1.449177554E1;7.878544217E-1;8.396129222E0;1.196272963E1;1.463634519E1
1.450175954E1;8.512531498E-1;5.283368647E0;8.499178212E0;1.004363711E1
1.451174354E1;7.410515535E-1;2.170568896E0;4.922866167E0;5.430942647E0
1.452172754E1;4.070451468E-1;-7.769499493E-1;1.512651300E0;1.748556814E0
1.453171154E1;3.308100262E-1;-3.786876712E0;-1.809102795E0;4.209836508E0
1.454169554E1;7.653800637E-2;-6.306136127E0;-4.522898490E0;7.760787439E0
1.455167954E1;-4.645912506E-2;-8.813019910E0;-6.408511518E0;1.089681138E1
1.456166354E1;-5.738705948E-1;-1.063518948E1;-7.886579461E0;1.325272494E1
1.457164754E1;-1.225157521E0;-1.170813718E1;-8.744470662E0;1.466448957E1
1.458163154E1;-1.744517959E0;-1.212375961E1;-9.493910632E0;1.549720068E1
1.459161554E1;-2.056745534E0;-1.257886009E1;-1.017580415E1;1.630965706E1
1.460159954E1;-2.098566282E0;-1.275632426E1;-1.125466572E1;1.714045768E1
1.461158454E1;-2.193153766E0;-1.194038858E1;-1.227183917E1;1.726212153E1
1.462156854E1;-2.289802394E0;-1.172430824E1;-1.307335211E1;1.770918219E1
1.463155254E1;-2.268904153E0;-1.174441681E1;-1.382925091E1;1.828462286E1
1.464153654E1;-2.303757066E0;-1.129392276E1;-1.408526072E1;1.820039993E1
1.465152054E1;-2.391514125E0;-1.083945260E1;-1.380388101E1;1.771327760E1
1.466150454E1;-2.569979333E0;-1.060405189E1;-1.313776386E1;1.707780869E1
1.467148854E1;-2.858703148E0;-1.041678428E1;-1.206515296E1;1.619411913E1
1.468147254E1;-3.204171851E0;-1.011459667E1;-1.098809233E1;1.527448710E1
1.469145654E1;-3.374096324E0;-9.804850942E0;-9.976053908E0;1.438892906E1
1.470144054E1;-3.368601403E0;-9.515594446E0;-8.872034689E0;1.343901085E1
1.471142454E1;-3.281990690E0;-9.220665566E0;-7.907487350E0;1.258254714E1
1.472140854E1;-3.164554919E0;-8.875276970E0;-7.226275617E0;1.187451087E1
1.473139254E1;-2.998699231E0;-8.439631337E0;-6.881993313E0;1.129519394E1
1.474137654E1;-2.827094269E0;-7.990517228E0;-6.734926484E0;1.082589776E1
1.475136054E1;-2.626938230E0;-7.413741444E0;-6.729854609E0;1.035158489E1
1.476134454E1;-2.373902897E0;-6.798158859E0;-6.859792605E0;9.945206555E0
1.477132854E1;-2.013539727E0;-6.152504044E0;-6.981339262E0;9.520858477E0
1.478131254E1;-1.615315543E0;-5.518479341E0;-7.152510653E0;9.177214565E0
1.479129754E1;-1.185727188E0;-5.000302014E0;-7.478447902E0;9.073927056E0
1.480128154E1;-7.648027242E-1;-4.540666425E0;-7.564359287E0;8.855625681E0
1.481126554E1;-4.332433042E-1;-4.000424044E0;-7.375305356E0;8.401560652E0
1.482124954E1;-2.011655608E-1;-3.478912050E0;-7.182267718E0;7.982998572E0
1.483123354E1;9.861621559E-2;-2.874852573E0;-6.704487634E0;7.295523073E0
1.484121754E1;2.559875929E-1;-1.847828904E0;-6.047140142E0;6.328341426E0
1.485120154E1;1.789958061E-1;-4.435668558E-1;-5.391201829E0;5.412379164E0
1.486118554E1;-2.327601135E-2;1.301827601E0;-4.231208968E0;4.427010979E0
1.487116954E1;-3.268882987E-1;3.099142410E0;-2.079192118E0;3.746275417E0
1.488115354E1;-1.013794928E0;5.572974222E0;8.320739901E-1;5.725222175E0
1.489113754E1;-1.764858668E0;9.603966340E0;4.528633440E0;1.076380121E1
1.490112154E1;-2.120909809E0;1.250474313E1;8.680237244E0;1.536923478E1
1.491110554E1;-2.386792937E0;1.446276866E1;1.345153832E1;1.989503307E1
1.492108954E1;-2.204826563E0;1.651708380E1;1.877178653E1;2.510090211E1
1.493107354E1;-1.316279287E0;1.783174838E1;2.341833725E1;2.946391625E1
1.494105754E1;2.748717606E-1;1.763773659E1;2.657871989E1;3.189974385E1
1.495104079E1;2.454465834E0;1.742710819E1;2.948662911E1;3.433933312E1
1.496102579E1;4.322374077E0;1.737486449E1;3.122623424E1;3.599509048E1
1.497100979E1;6.005143100E0;1.654208883E1;3.081944813E1;3.549001028E1
1.498099379E1;7.177660697E0;1.550227496E1;2.983706912E1;3.438153626E1
1.499097779E1;7.574183779E0;1.436935705E1;2.811623122E1;3.247105079E1
1.500096179E1;7.450721574E0;1.295072079E1;2.603170585E1;3.001473189E1
1.501094579E1;7.116826850E0;1.115335102E1;2.347627147E1;2.694776030E1
1.502092979E1;6.662881186E0;9.068777708E0;2.054576860E1;2.342574059E1
1.503091379E1;6.040911688E0;6.891820144E0;1.680303369E1;1.913979467E1
1.504089779E1;5.078212654E0;4.863491201E0;1.244624290E1;1.429513039E1
1.505088179E1;3.781634975E0;3.117369935E0;8.288120624E0;9.628691597E0
1.506086579E1;2.629441716E0;1.295850577E0;4.647513181E0;5.494776722E0
1.507084979E1;1.648217241E0;-6.417249012E-1;1.187953076E0;2.130648595E0
1.508083379E1;5.822626649E-1;-2.698252042E0;-2.023482186E0;3.422582950E0
1.509081779E1;-6.657183659E-1;-4.550588565E0;-4.875609555E0;6.702432824E0
1.510080179E1;-1.898023450E0;-5.942446915E0;-7.079935012E0;9.436135232E0
1.511078579E1;-3.229674775E0;-6.969865855E0;-8.856179379E0;1.172355502E1
1.512076979E1;-4.603667250E0;-7.779518112E0;-1.010095043E1;1.355521501E1
1.513075379E1;-5.872856278E0;-8.193881049E0;-1.068694786E1;1.469152756E1
1.514073879E1;-6.986797637E0;-8.493732700E0;-1.118248886E1;1.568460690E1
1.515072279E1;-7.937024560E0;-8.608238139E0;-1.143724269E1;1.636791505E1
1.516070679E1;-8.566246945E0;-8.660150889E0;-1.149668315E1;1.674970219E1
1.517069079E1;-9.063655547E0;-8.774454015E0;-1.150179829E1;1.707138715E1
1.518067479E1;-9.319556601E0;-8.974501296E0;-1.137131417E1;1.722505717E1
1.519065879E1;-9.203076557E0;-8.625385684E0;-1.080868104E1;1.661088445E1
1.520064279E1;-8.963637754E0;-9.021311181E0;-1.034399814E1;1.639296052E1
1.521062679E1;-8.249966372E0;-9.209170525E0;-1.030540885E1;1.609572050E1
1.522061079E1;-7.664582902E0;-8.925390531E0;-9.730192523E0;1.526712395E1
1.523059479E1;-7.210765293E0;-8.699645323E0;-9.074306250E0;1.449213576E1
1.524057879E1;-6.596032893E0;-8.576391864E0;-8.456029269E0;1.373195464E1
1.525056279E1;-5.938227564E0;-8.634401506E0;-7.995520690E0;1.318119065E1
1.526054679E1;-5.979055747E0;-8.535418670E0;-7.935805416E0;1.309883533E1
1.527053079E1;-5.590021194E0;-8.403924730E0;-7.760493611E0;1.273183211E1
1.528051479E1;-4.795634848E0;-8.245623060E0;-6.953711168E0;1.180434294E1
1.529049879E1;-4.446588233E0;-8.075671399E0;-6.709988694E0;1.140230519E1
1.530048279E1;-4.431246309E0;-7.659343212E0;-7.042225149E0;1.130904140E1
1.531046679E1;-4.106361266E0;-6.982701078E0;-6.900613187E0;1.064137113E1
1.532045079E1;-3.906532086E0;-6.491323879E0;-6.280351076E0;9.840786974E0
1.533043479E1;-3.616146786E0;-6.213853031E0;-6.324053165E0;9.575078877E0
1.534041879E1;-3.174476182E0;-5.872038252E0;-6.288331940E0;9.170673413E0
1.535040379E1;-2.815227053E0;-5.358392517E0;-6.285429967E0;8.726081801E0
1.536038779E1;-2.406289162E0;-4.826763085E0;-6.374685375E0;8.350118744E0
1.537037179E1;-1.921567556E0;-4.421165124E0;-6.458892297E0;8.059554121E0
1.538035579E1;-1.536323168E0;-4.230141851E0;-6.402067886E0;7.825654105E0
1.539033979E1;-1.022162293E0;-4.070750846E0;-6.120185314E0;7.421084589E0
1.540032379E1;-7.502001071E-1;-4.016349521E0;-5.650763825E0;6.973162516E0
1.541030779E1;-7.858570129E-1;-3.730122467E0;-5.178974798E0;6.430642644E0
1.542029179E1;-4.887851286E-1;-3.777873754E0;-4.905390594E0;6.210804930E0
1.543027579E1;1.531474949E-1;-3.450402195E0;-4.313631320E0;5.525951921E0
1.544025979E1;5.855825678E-1;-2.565987439E0;-4.150330866E0;4.914513687E0
1.545024379E1;1.015399696E0;-2.063542630E0;-3.948078600E0;4.569088461E0
1.546022779E1;1.416149584E0;-1.678690006E0;-3.307436603E0;3.970216199E0
1.547021179E1;1.764188578E0;-6.771514267E-1;-2.589706085E0;3.205849809E0
1.548019579E1;2.370429212E0;4.805721295E-1;-8.949625486E-1;2.578922679E0
1.549017979E1;2.892156823E0;1.501879560E0;2.074548844E0;3.863154955E0
1.550016379E1;3.044513920E0;2.325608404E0;6.217550810E0;7.303112866E0
1.551014779E1;2.834379900E0;3.414154136E0;1.227832257E1;1.305554912E1
1.552013179E1;3.338925029E0;5.186605414E0;1.985542527E1;2.079151772E1
1.553011579E1;5.605377737E0;6.547543103E0;2.818294561E1;2.947149476E1
1.554009979E1;8.898660570E0;5.293001350E0;3.551041665E1;3.698907560E1
1.555008479E1;1.276765733E1;8.396440879E-1;3.887252121E1;4.092421021E1
1.556006879E1;1.644555832E1;-3.680428736E0;3.725600231E1;4.089023908E1
1.557005279E1;1.734428004E1;-3.536595709E0;3.227020080E1;3.680621441E1
1.558003679E1;1.479349770E1;1.548579517E-1;2.555134305E1;2.952528894E1
1.559002079E1;1.110221127E1;4.021475190E0;1.958469568E1;2.286901097E1
1.560000479E1;8.281583437E0;6.927239653E0;1.478546480E1;1.830795572E1
1.560998879E1;6.245836716E0;7.778988354E0;1.141018178E1;1.515636448E1
1.561997279E1;5.148101499E0;6.843600495E0;1.118667313E1;1.408827429E1
1.562995679E1;4.904619639E0;5.490961760E0;1.101721965E1;1.325085219E1
1.563994079E1;4.517760542E0;5.229439777E0;9.430668901E0;1.169165158E1
1.564992479E1;4.078089978E0;5.209200225E0;7.000183668E0;9.631674633E0
1.565990879E1;3.491922104E0;5.032463454E0;4.463277941E0;7.578921980E0
1.566989279E1;2.827378444E0;4.320068227E0;2.216073682E0;5.618544377E0
1.567987679E1;2.156931727E0;3.370926256E0;3.063180864E-2;4.002054048E0
1.568986079E1;1.352143769E0;2.460923499E0;-2.098023661E0;3.505159129E0
1.569984479E1;6.273544917E-1;1.686534922E0;-3.942100407E0;4.333373896E0
1.570982879E1;-2.480131602E-1;1.019992976E0;-5.553577838E0;5.651913216E0
1.571981279E1;-1.502011122E0;9.143060151E-1;-6.751674079E0;6.976897288E0
1.572979679E1;-2.882216556E0;9.806312746E-1;-7.598102984E0;8.185351485E0
1.573978079E1;-4.272635906E0;1.122359596E0;-8.231395031E0;9.341893427E0
1.574976479E1;-5.435203881E0;1.409579507E0;-8.729948518E0;1.037980524E1
1.575974879E1;-6.323890028E0;1.291107024E0;-9.111484601E0;1.116591662E1
1.576973379E1;-6.962191384E0;9.486157224E-1;-9.436936532E0;1.176553236E1
1.577971779E1;-7.423957114E0;5.523522565E-1;-9.727813876E0;1.224951407E1
1.578970179E1;-7.818398588E0;1.060608906E-1;-9.952796023E0;1.265688564E1
1.579968579E1;-8.164168423E0;-1.791528404E-1;-1.008880226E1;1.297958677E1
1.580966979E1;-8.292777931E0;-6.690237969E-1;-1.028929393E1;1.323205684E1
1.581965379E1;-8.204882001E0;-1.265597668E0;-1.050196652E1;1.338705071E1
1.582963779E1;-8.026590455E0;-1.765622315E0;-1.080264789E1;1.357353225E1
1.583962179E1;-7.699788988E0;-2.272473878E0;-1.078540913E1;1.344529427E1
1.584960579E1;-7.305294889E0;-2.766030627E0;-1.060970380E1;1.317513088E1
1.585958979E1;-6.880636175E0;-3.312512571E0;-1.036502239E1;1.287437699E1
1.586957379E1;-6.492885085E0;-3.916815877E0;-1.001540333E1;1.256213784E1
1.587955779E1;-6.112845304E0;-4.338990402E0;-9.525879698E0;1.212172015E1
1.588954179E1;-5.727779841E0;-4.644661786E0;-9.092371223E0;1.170690221E1
1.589952579E1;-5.481206850E0;-4.840225130E0;-8.841322773E0;1.147346487E1
1.590950979E1;-5.289818711E0;-4.886921579E0;-8.457828457E0;1.110851235E1
1.591949379E1;-4.920177033E0;-4.923704073E0;-8.035268308E0;1.063092379E1
1.592947779E1;-4.469061422E0;-4.868050860E0;-7.744850555E0;1.018101858E1
1.593946179E1;-4.133601105E0;-4.566735651E0;-7.378692648E0;9.611807208E0
1.594944579E1;-3.555305045E0;-4.329827523E0;-6.757423646E0;8.777834282E0
1.595943017E1;-2.830317255E0;-4.217168634E0;-6.281808202E0;8.078138482E0
1.596941417E1;-2.092638668E0;-4.086942371E0;-5.847143147E0;7.434468207E0
1.597939817E1;-1.318453574E0;-3.962957425E0;-5.246931723E0;6.706239176E0
1.598938217E1;-4.964160374E-1;-3.811736149E0;-4.427689447E0;5.863462731E0
1.599936717E1;-7.642018497E-3;-3.396468648E0;-3.831609081E0;5.120281811E0
1.600935117E1;3.325229681E-1;-2.325578583E0;-3.443918218E0;4.168867947E0
1.601933517E1;7.008287032E-1;-8.168104184E-1;-2.789890190E0;2.990288850E0
1.602931917E1;6.942342134E-1;1.275995772E0;-1.332045427E0;1.970906231E0
1.603930317E1;5.174896950E-1;3.480936356E0;8.265577269E-1;3.614956593E0
1.604928717E1;-3.701901466E-2;6.015626573E0;5.101305647E0;7.887487102E0
1.605927117E1;-1.424413016E0;1.132108775E1;1.358398009E1;1.774036346E1
1.606925517E1;-1.709262465E0;1.584826992E1;2.462039849E1;2.933007432E1
1.607923917E1;8.665317781E-1;1.659953188E1;3.481604809E1;3.858046838E1
1.608922317E1;6.187400812E0;1.573838670E1;4.113329568E1;4.447391099E1
1.609920717E1;1.341317708E1;1.161633823E1;4.323054225E1;4.673042281E1
1.610919117E1;1.953695667E1;8.356096845E0;3.949209919E1;4.484576824E1
1.611917517E1;2.150110775E1;1.170480777E1;3.250534307E1;4.069272033E1
1.612915917E1;2.035902725E1;1.477876272E1;2.310956685E1;3.416070693E1
1.613914317E1;1.729202698E1;1.494647256E1;1.512651534E1;2.740844223E1
1.614912717E1;1.347276605E1;1.298425574E1;9.651186699E0;2.105354428E1
1.615911117E1;9.171184673E0;1.017819917E1;5.725529832E0;1.484884031E1
1.616909517E1;5.026095836E0;7.233080606E0;2.333584006E0;9.111789546E0
1.617907917E1;1.713574786E0;4.946353263E0;-9.281922752E-1;5.316417032E0
1.618906317E1;-1.020191782E0;3.504162081E0;-4.497474212E0;5.791995981E0
1.619904717E1;-3.478207752E0;1.908780865E0;-7.466495023E0;8.455171287E0
1.620903117E1;-5.353562717E0;4.844622821E-1;-9.197872535E0;1.065345937E1
1.621901617E1;-6.641440616E0;-9.959772921E-1;-1.044618876E1;1.241867802E1
1.622900017E1;-7.415089227E0;-2.087000490E0;-1.148463087E1;1.382880564E1
1.623898417E1;-7.469139719E0;-3.296560197E0;-1.247097663E1;1.490572425E1
1.624896817E1;-7.090164131E0;-5.109468945E0;-1.380135618E1;1.633568281E1
1.625895217E1;-6.752762246E0;-6.155066294E0;-1.459413571E1;1.721840400E1
1.626893617E1;-6.500418638E0;-6.880948416E0;-1.445628527E1;1.727967237E1
1.627892017E1;-5.746276338E0;-7.727140508E0;-1.439932052E1;1.732249473E1
1.628890417E1;-5.308528047E0;-8.819262398E0;-1.416558626E1;1.751067370E1
1.629888817E1;-5.166674595E0;-9.529530700E0;-1.337030178E1;1.721253763E1
1.630887217E1;-5.051015500E0;-9.849849944E0;-1.270293333E1;1.684923787E1
1.631885617E1;-4.691026406E0;-1.023654737E1;-1.190384466E1;1.638579105E1
1.632884017E1;-4.066887006E0;-1.085103594E1;-1.105577502E1;1.601607668E1
1.633882417E1;-3.410112833E0;-1.155359761E1;-1.004722739E1;1.568634009E1
1.634880817E1;-3.001691252E0;-1.202363072E1;-8.937991866E0;1.527957933E1
1.635879217E1;-2.727196052E0;-1.212499805E1;-8.162486179E0;1.486873756E1
1.636877617E1;-2.813807057E0;-1.184080348E1;-7.384824623E0;1.423579194E1
1.637876017E1;-2.413525092E0;-1.143397410E1;-6.852083051E0;1.354665675E1
1.638874417E1;-2.026483562E0;-1.161985124E1;-6.892491404E0;1.366140608E1
1.639872817E1;-2.035213455E0;-1.127188110E1;-5.806696787E0;1.284192839E1
1.640871217E1;-1.777412056E0;-1.033393391E1;-5.735370111E0;1.195173017E1
1.641869617E1;-1.723081336E0;-9.670204183E0;-5.720861415E0;1.136706266E1
1.642868017E1;-1.383287355E0;-8.978807185E0;-5.329389158E0;1.053256147E1
1.643866417E1;-9.609849223E-1;-8.191112977E0;-4.823921923E0;9.554477827E0
1.644864817E1;-4.975886965E-1;-7.550964485E0;-4.604135612E0;8.857918712E0
1.645863217E1;7.384938352E-2;-7.059850411E0;-4.267890306E0;8.249959347E0
1.646861617E1;5.438270161E-1;-6.708115246E0;-3.609504933E0;7.636955142E0
1.647860117E1;8.753530338E-1;-6.151646258E0;-2.801216247E0;6.815849696E0
1.648858517E1;1.295003023E0;-5.453103377E0;-1.789588882E0;5.883536151E0
1.649856917E1;1.741804267E0;-4.929972289E0;-7.169937694E-1;5.277555204E0
1.650855317E1;1.786077629E0;-4.387154794E0;6.849334860E-1;4.786056244E0
1.651853717E1;1.595919744E0;-3.328687724E0;2.492434144E0;4.454138498E0
1.652852117E1;1.423514298E0;-1.895836299E0;4.492270190E0;5.079476321E0
1.653850517E1;1.190892472E0;-4.540959370E-1;6.257176221E0;6.385662241E0
1.654848917E1;9.545006526E-1;8.785874212E-1;8.106389161E0;8.209539122E0
1.655847317E1;8.983831698E-1;2.037861659E0;9.661610531E0;9.914973046E0
1.656845717E1;8.000623117E-1;3.507762796E0;1.148357486E1;1.203399315E1
1.657844117E1;7.516497049E-1;5.236088646E0;1.360890093E1;1.460081457E1
1.658842517E1;7.306304265E-1;6.719520240E0;1.520804190E1;1.664242505E1
