"Time (s)";"Linear Acceleration x (m/s^2)";"Linear Acceleration y (m/s^2)";"Linear Acceleration z (m/s^2)";"Absolute acceleration (m/s^2)"
3.161579161E-2;-7.925783873E-1;-1.170220810E-1;-6.171595788E-1;1.011316277E0
4.159979161E-2;-7.850208610E-1;-2.263629672E-1;-8.281008071E-1;1.163292264E0
5.158379162E-2;-9.126685023E-1;-2.649905509E-1;-1.020647280E0;1.394598385E0
6.156779162E-2;-1.136870046E0;-2.479932797E-1;-1.007862927E0;1.539403082E0
7.155079162E-2;-1.381322545E0;-2.274704298E-1;-9.180532032E-1;1.674101685E0
8.153479162E-2;-1.660898390E0;-1.958156508E-1;-7.437132061E-1;1.830310510E0
9.151879163E-2;-1.841411000E0;-1.058749491E-1;-5.238450336E-1;1.917398654E0
1.015027916E-1;-1.813087673E0;-3.762800217E-2;-3.029594457E-1;1.838610127E0
1.114867916E-1;-1.678883841E0;-6.975874454E-2;-1.040354151E-1;1.683549999E0
1.214707916E-1;-1.460975070E0;-1.907528391E-1;6.605599523E-3;1.473390117E0
1.314547916E-1;-1.152034215E0;-2.923888493E-1;8.244866431E-2;1.191415903E0
1.414377916E-1;-8.404986584E-1;-3.332144013E-1;1.658153415E-2;9.042924191E-1
1.514217916E-1;-6.745254421E-1;-3.004965985E-1;-5.338449419E-2;7.403598328E-1
1.614057916E-1;-6.537821522E-1;-1.821363822E-1;-1.326879412E-1;6.915279127E-1
1.713897916E-1;-7.071622610E-1;-6.709446073E-2;-4.625241137E-1;8.476489166E-1
1.813737917E-1;-8.055556977E-1;-1.823746562E-3;-7.587458128E-1;1.106624831E0
1.913577917E-1;-9.179570165E-1;1.377121612E-2;-9.269257683E-1;1.304617228E0
2.013417917E-1;-8.689377612E-1;-6.394748926E-2;-1.222825871E0;1.501481010E0
2.113247917E-1;-5.916312200E-1;-3.000909479E-1;-1.619336089E0;1.749951841E0
2.213087917E-1;-2.459069932E-1;-4.604483521E-1;-1.843973835E0;1.916434825E0
2.312927917E-1;-1.415099278E-1;-2.711672571E-1;-1.985671166E0;2.009091019E0
2.412767917E-1;-1.054387468E-1;5.274466261E-2;-1.952412204E0;1.955968492E0
2.512607917E-1;-1.181690124E-1;3.353742166E-1;-1.790811535E0;1.825772641E0
2.612447917E-1;-2.382784232E-1;5.182901788E-1;-1.685765136E0;1.779664410E0
2.712287917E-1;-5.421438950E-1;5.011771327E-1;-1.711239701E0;1.863716672E0
2.812127917E-1;-7.716251823E-1;3.242751780E-1;-1.646633230E0;1.847149374E0
2.911957917E-1;-8.170986861E-1;-1.632514836E-1;-8.369897443E-1;1.181039009E0
3.011797917E-1;-8.785482448E-1;1.964952435E-1;-9.150915885E-1;1.283686104E0
3.111637917E-1;-2.443215206E-1;4.182093818E-1;-1.844424071E0;1.906958900E0
3.211477917E-1;5.329070485E-1;-3.683511972E-2;-1.088674956E0;1.212666446E0
3.311317917E-1;-1.677475539E-1;1.917594373E-2;-2.646332860E-1;3.139072072E-1
3.411157917E-1;-2.347429043E-1;3.371457767E-1;-3.068577844E-1;5.127701295E-1
3.510997917E-1;-3.570090607E-1;6.253662921E-1;7.017436463E-1;1.005476312E0
3.610827917E-1;-7.261171800E-1;5.174315152E-1;1.707357734E0;1.926149518E0
3.710667917E-1;-1.285995680E0;-3.142843330E-1;1.453551738E0;1.966054980E0
3.810507917E-1;-9.363229747E-1;-9.442551613E-1;-3.966224849E-2;1.330372736E0
3.910347916E-1;3.606203011E-1;-1.105699709E0;-1.237118804E0;1.697964012E0
4.010187916E-1;2.302064736E0;-1.166134776E0;-1.920897465E0;3.217020273E0
4.110027916E-1;2.833795471E0;-5.891927849E-1;-3.439932756E0;4.495629241E0
4.209867916E-1;2.919557460E0;-3.784467074E-1;-3.189380735E0;4.340413246E0
4.309707916E-1;2.650997476E0;-8.037018380E-1;-1.924052038E0;3.372788240E0
4.409547916E-1;2.037275768E0;-1.298072373E0;-8.492057472E-1;2.560592674E0
4.509377916E-1;1.635333925E0;-1.616442010E0;2.736672342E-2;2.299554468E0
4.609217916E-1;1.200904367E0;-1.739589634E0;1.056945040E0;2.363361210E0
4.709057916E-1;7.065556124E-1;-1.670893036E0;1.032422403E0;2.087342901E0
4.808897916E-1;5.873557359E-1;-1.682336329E0;1.201550192E-1;1.785967389E0
4.908737916E-1;6.434071451E-1;-1.502189462E0;-5.651380706E-1;1.729140530E0
5.008577916E-1;6.529173490E-1;-9.033787385E-1;-5.149046409E-1;1.227811467E0
5.108417916E-1;6.989241189E-1;-4.024185374E-1;3.476865524E-1;8.782491343E-1
5.208257916E-1;4.878068894E-1;-1.332077587E-1;1.172390712E0;1.276792798E0
5.308097916E-1;8.766028762E-2;-5.989010632E-3;1.852318981E0;1.854401737E0
5.407937916E-1;-2.378682411E-1;-1.115321302E-1;2.232638844E0;2.248042910E0
5.507767916E-1;-1.476188064E-1;-3.732008779E-1;2.665074940E0;2.695124236E0
5.607607916E-1;-4.890026450E-3;-3.560762836E-1;2.730516978E0;2.753640717E0
5.707447917E-1;3.979731917E-2;-1.918085539E-1;2.346789942E0;2.354951673E0
5.807287917E-1;1.617018253E-1;-1.569794677E-1;2.115296921E0;2.127268459E0
5.907127917E-1;5.424542360E-1;-3.356325173E-1;1.659016464E0;1.777425501E0
6.006967917E-1;5.152961120E-1;-1.626579912E-1;1.141066593E0;1.262545316E0
6.106807917E-1;5.476842780E-1;2.806474940E-1;1.319136529E0;1.455624356E0
6.206647917E-1;7.317769924E-1;6.945009926E-1;1.460695866E0;1.775235648E0
6.306487917E-1;6.194661592E-1;1.007391057E0;1.974946788E0;2.301953492E0
6.406327917E-1;4.150420913E-1;1.148537873E0;2.524408473E0;2.804289094E0
6.506167917E-1;1.250514045E-1;1.141163072E0;2.991334956E0;3.204056152E0
6.605997917E-1;-4.977040328E-2;1.041966959E0;3.188920559E0;3.355202910E0
6.705837917E-1;-4.516879074E-2;8.726625837E-1;2.458816747E0;2.609475043E0
6.805677917E-1;4.325974427E-1;6.528518602E-1;1.102307155E0;1.352197161E0
6.905517917E-1;4.769930853E-1;5.616890904E-1;1.143813030E0;1.360634148E0
7.005363749E-1;-1.884331025E-2;7.951102316E-1;1.577016866E0;1.766221262E0
7.105203749E-1;-6.600271247E-1;1.032700438E0;1.546425403E0;1.973204887E0
7.205043749E-1;-1.401939096E0;8.835603319E-1;1.056399495E0;1.965220594E0
7.304883749E-1;-1.055963073E0;4.031861307E-1;3.482373601E-1;1.182745250E0
7.404723749E-1;-1.044833118E0;5.925546415E-1;-5.494488215E-1;1.320867614E0
7.504563750E-1;-1.719761579E0;1.067257190E0;1.760011911E-3;2.024011091E0
7.604403750E-1;-2.090488354E0;1.454571784E0;-7.983519280E-1;2.668948564E0
7.704243750E-1;-2.112675029E0;1.721482122E0;-2.524880928E0;3.715093563E0
7.804083750E-1;-2.173834858E0;2.042625970E0;-4.357518767E0;5.280705317E0
7.903913750E-1;-1.676743906E0;2.841337502E0;-3.995864385E0;5.181853058E0
8.003753750E-1;-9.672798885E-1;3.766449464E0;3.192977357E-1;3.901758961E0
8.103593750E-1;-6.572606608E-2;2.797279902E0;1.412911250E0;3.134551477E0
8.203433750E-1;8.218627051E-2;1.351484203E0;1.935176951E-1;1.367740192E0
8.303273750E-1;-1.510730490E-2;8.065226079E-1;9.775024295E-1;1.267366540E0
8.403113750E-1;-5.385943428E-2;1.136513074E0;1.309676903E0;1.734882243E0
8.502953750E-1;-2.974404050E-1;1.629234548E0;9.547134912E-1;1.911636434E0
8.602793750E-1;-5.490915567E-1;1.611257283E0;1.958361161E-1;1.713476978E0
8.702633750E-1;-2.339055830E-1;1.099888381E0;-4.299159461E-1;1.203866269E0
8.802473750E-1;2.506277427E-2;1.223731458E0;-1.074496627E0;1.628708024E0
8.902313750E-1;3.340087456E-1;1.614282633E0;-1.282924722E0;2.088867182E0
9.002153750E-1;5.153335342E-1;1.696589210E0;-1.198851117E0;2.140380246E0
9.101993750E-1;6.295954370E-1;1.770165601E0;-1.626894200E0;2.485288999E0
9.201833750E-1;7.618024448E-1;1.906881251E0;-2.673478559E0;3.371057204E0
9.301673750E-1;5.570197964E-1;2.025590692E0;-3.507965695E0;4.088901077E0
9.401513750E-1;7.749271050E-2;1.957020102E0;-3.129782989E0;3.692082659E0
9.501343750E-1;-5.343210514E-1;1.894017669E0;-2.213955236E0;2.962161323E0
9.601183750E-1;-1.343576429E0;1.575014340E0;-1.932884842E0;2.832297937E0
9.701023750E-1;-2.433338382E0;3.161771498E-1;-1.937357377E0;3.126412845E0
9.800863750E-1;-3.952789702E0;-1.958850573E0;-1.449477983E0;4.643557732E0
9.900703750E-1;-4.274623960E0;-4.036510136E0;-1.818273568E-1;5.882081711E0
1.000054375E0;-3.141867722E0;-3.660831792E0;1.311949716E0;4.999423392E0
1.010038375E0;-2.046827487E0;-7.532080610E-1;2.077541449E0;3.012142695E0
1.020022375E0;-1.276114178E0;2.443285373E-1;1.325976602E0;1.856442237E0
1.030006375E0;-9.577367941E-1;1.465091510E-1;7.206283987E-2;9.715542964E-1
1.039990375E0;-6.788823487E-1;1.018329882E-1;-5.155466652E-1;8.585100843E-1
1.049974375E0;-1.653601357E-1;2.748615280E-1;1.608393610E-1;3.588344104E-1
1.059958375E0;-1.268914501E-1;2.946329375E-1;1.393942882E0;1.430379938E0
1.069942375E0;-5.207486406E-2;-2.443870825E-1;2.009928925E0;2.025401472E0
1.079926375E0;5.623857862E-1;-9.914660921E-1;2.237497296E0;2.511110697E0
1.089910375E0;1.080775806E0;-1.583356709E0;2.506379753E0;3.155476870E0
1.099894375E0;1.109811471E0;-1.666584661E0;2.409914144E0;3.133188809E0
1.109878375E0;1.165781312E0;-1.468978008E0;1.581393507E0;2.453109838E0
1.119862375E0;6.486418650E-1;-1.218081805E0;4.799745440E-1;1.461107496E0
1.129845375E0;-2.390695515E-1;-1.024267802E0;-2.992137194E-1;1.093529895E0
1.139829375E0;-8.193925488E-1;-8.364793555E-1;-1.977849931E-1;1.187527164E0
1.149813375E0;-6.913948055E-1;-5.188205212E-1;1.226015527E0;1.500105190E0
1.159797375E0;-1.194380921E0;-6.158239286E-1;9.478476906E-1;1.644445237E0
1.169781375E0;-1.488043586E0;-1.153525109E0;1.061987679E0;2.161645605E0
1.179765375E0;-1.300034553E0;-1.887314859E0;9.885554212E-1;2.495854370E0
1.189749375E0;-1.163354425E0;-2.446408809E0;-7.864493358E-1;2.820782185E0
1.199733375E0;-1.180874437E0;-2.771411819E0;-1.955610046E0;3.591601114E0
1.209717375E0;-7.720631388E-1;-2.700488017E0;-1.283352739E0;3.087994701E0
1.219701375E0;-3.227604568E-1;-2.476845467E0;-8.737611294E-1;2.646204129E0
1.229685375E0;2.638240314E-1;-2.367206373E0;-1.316343899E0;2.721402284E0
1.239669375E0;8.810146004E-1;-1.448366719E0;-1.868153241E0;2.522686943E0
1.249653375E0;1.113855113E0;-6.113123631E-1;-1.729114054E0;2.145742629E0
1.259637375E0;4.113817343E-1;-8.790408728E-1;-1.489595144E0;1.777875553E0
1.269621375E0;-4.095495093E-1;-1.980322718E0;-1.938026299E0;2.800956052E0
1.279605375E0;-4.754511380E-1;-3.257755443E0;-1.562492967E0;3.644229491E0
1.289589375E0;-8.616591471E-1;-3.724978672E0;-1.564606150E0;4.131091260E0
1.299573375E0;-1.355387804E0;-3.739979119E0;-2.032892695E0;4.467345142E0
1.309556375E0;-1.163873365E0;-3.451754656E0;-1.670260075E0;4.007365735E0
1.319540375E0;-7.847211912E-1;-3.331757220E0;-9.675890601E-1;3.557052447E0
1.329524375E0;3.995460927E-2;-3.089795635E0;-9.770451772E-1;3.240841051E0
1.339508375E0;1.202804419E0;-1.958570491E0;-9.355229294E-1;2.481519694E0
1.349492375E0;2.752773527E0;-2.818096574E0;-1.657165235E-1;3.942954775E0
1.359476375E0;3.003409748E0;-2.862329006E0;-2.002811694E-1;4.153734465E0
1.369460375E0;2.590326474E0;-1.654588952E0;2.175912666E0;3.765906501E0
1.379444375E0;2.021204111E0;-5.504405093E-1;2.756847575E0;3.462435467E0
1.389428375E0;1.594738314E0;6.433264536E-1;2.014492677E0;2.648629827E0
1.399412375E0;1.051887783E0;1.555096824E0;2.077794049E0;2.800361075E0
1.409396375E0;8.348353377E-1;1.904281433E0;2.374583513E0;3.156245344E0
1.419380375E0;9.746416792E-1;2.052125357E0;2.106711454E0;3.098286306E0
1.429364375E0;7.327882683E-1;2.087259521E0;1.526057212E0;2.687467501E0
1.439348375E0;5.755265263E-1;1.104365959E0;1.479669496E0;1.933979517E0
1.449332375E0;2.752342880E-2;3.436619139E-1;7.204664308E-1;7.987070352E-1
1.459316375E0;1.078188559E-1;-2.137566626E-2;-4.058844745E-2;1.171718689E-1
1.469300375E0;3.124064997E-1;1.291649938E-1;-9.081766713E-1;9.690543240E-1
1.479284375E0;2.057994792E-1;3.640207493E-1;-1.081287584E0;1.159330570E0
1.489268375E0;-3.164805472E-2;-6.144254208E-3;-1.180609851E0;1.181049944E0
1.499252375E0;2.720545721E-1;-3.276709485E-1;-1.066291814E0;1.148198665E0
1.509236375E0;8.805324975E-1;6.368904233E-2;-1.892480582E-1;9.028890301E-1
1.519220375E0;1.817112019E0;2.630428433E-1;4.366232872E-1;1.887253963E0
1.529203375E0;3.024017675E0;7.100157022E-1;1.080504057E0;3.288813496E0
1.539187375E0;3.258372909E0;1.349264892E0;1.767698076E0;3.944903833E0
1.549171375E0;2.587768610E0;1.339205343E0;1.912614592E0;3.485414165E0
1.559155375E0;1.597833538E0;1.506447405E-1;1.469099776E0;2.175780321E0
1.569139375E0;6.150735846E-1;-1.303285897E0;7.366465536E-1;1.618492443E0
1.579123375E0;-2.723673981E-1;-1.991142406E0;3.523005903E-2;2.009993343E0
1.589107375E0;-4.626928058E-1;-2.409953320E0;-3.308749303E-1;2.476174036E0
1.599091375E0;-3.586635303E-1;-2.759599274E0;-1.036534165E0;2.969584274E0
1.609075375E0;-3.400419027E-1;-2.746016192E0;-2.154045249E0;3.506585855E0
1.619059375E0;-6.480223525E-1;-2.146765466E0;-2.768157552E0;3.562475427E0
1.629043375E0;-1.340954245E0;-1.063810256E0;-2.332098521E0;2.892841865E0
1.639027375E0;-1.721298374E0;-8.140148646E-1;-1.073184074E0;2.185683497E0
1.649011375E0;-1.325343056E0;-2.157971655E0;-6.023089667E-1;2.603104295E0
1.658995375E0;-1.049371142E0;-3.370698214E0;-1.485307381E0;3.830003167E0
1.668979375E0;-1.259935225E0;-3.778181902E0;-2.575598508E0;4.742974059E0
1.678963375E0;-1.453217569E0;-3.768416467E0;-3.012423524E0;5.038600943E0
1.688947375E0;-1.430405535E0;-3.211413628E0;-3.171433291E0;4.734683369E0
1.698935417E0;-1.045221958E0;-2.188691171E0;-3.023098201E0;3.875820005E0
1.708919417E0;-1.361639062E0;-8.401466560E-1;-1.689879237E0;2.327143996E0
1.718903417E0;-1.889433306E0;-2.674083745E-1;1.453196812E-1;1.913787675E0
1.728887417E0;-1.882051488E0;-1.240768636E0;1.269241068E0;2.587005509E0
1.738871417E0;-1.989229782E0;-1.822418075E0;-1.401332009E-1;2.701458879E0
1.748855417E0;-1.416921855E0;-1.511524542E0;-1.213120516E0;2.400840555E0
1.758839417E0;-3.509089530E-2;-7.946956640E-1;-1.432717377E0;1.638734772E0
1.768823417E0;1.318044269E-1;2.623242205E-1;-5.353125930E-1;6.105292588E-1
1.778807417E0;-8.882131076E-1;1.085771813E0;-1.173218970E-1;1.407688667E0
1.788791417E0;-1.602877931E0;1.019746224E0;-9.114391252E-2;1.901948274E0
1.798775417E0;-1.480140197E0;2.382927489E-1;9.203844881E-1;1.759177661E0
1.808759417E0;-1.097522963E0;2.859171510E-1;9.231607461E-1;1.462371715E0
1.818743417E0;-1.011645491E0;8.857642937E-1;5.401950181E-1;1.449074063E0
1.828727417E0;-8.501032948E-1;1.033143949E0;1.042256835E0;1.695983886E0
1.838711417E0;-8.960898918E-1;7.987366748E-1;1.513827760E0;1.932002033E0
1.848695417E0;-1.301170959E0;2.790402406E-1;1.359388762E0;1.902326766E0
1.858679417E0;-1.206295207E0;-3.629121172E-1;1.351080453E0;1.847233532E0
1.868663417E0;-8.100580537E-1;-9.714523154E-1;1.301329418E0;1.814764973E0
1.878647417E0;-7.502755362E-1;-1.297701221E0;1.054403256E0;1.832677840E0
1.888631417E0;-1.078400813E0;-1.340201123E0;6.166748446E-1;1.827395751E0
1.898615417E0;-1.897733136E0;-1.238495239E0;2.370687805E-2;2.266235541E0
1.908599417E0;-2.887829883E0;-6.851147497E-1;-6.123403037E-1;3.030495719E0
1.918583417E0;-3.571295718E0;3.347308767E-1;-9.710260534E-1;3.716058323E0
1.928567417E0;-2.732233136E0;7.171656775E-1;-2.767861390E-1;2.838315536E0
1.938551417E0;-1.207840626E0;6.583847880E-2;-7.489814012E-1;1.422739197E0
1.948535417E0;-4.630173263E-1;-2.129234344E-1;-1.990851361E0;2.055045151E0
1.958519417E0;2.361129069E-1;-2.476395231E-1;-1.854426464E0;1.885728546E0
1.968503417E0;6.187956297E-1;1.921488619E-1;-2.088581138E0;2.186778541E0
1.978487417E0;2.965707779E-1;8.969956255E-1;-1.510835740E0;1.781903480E0
1.988471417E0;4.057090580E-1;8.166730088E-1;-8.353073542E-1;1.236645875E0
1.998455417E0;5.560731322E-1;-6.588402861E-1;-3.554906850E-1;9.325564208E-1
2.008439417E0;9.125515580E-2;-1.391404021E0;-2.086046809E-1;1.409910837E0
2.018423417E0;2.721001804E-1;-1.629412596E0;-1.962571156E-1;1.663592730E0
2.028407417E0;7.547884172E-1;-1.589419979E0;3.230694821E-1;1.788948103E0
2.038391417E0;1.510567060E0;-1.632228615E0;2.168381453E-1;2.234502601E0
2.048375417E0;2.221168361E0;-1.520131059E0;-1.320008934E-3;2.691540278E0
2.058359417E0;2.575197973E0;-5.603059316E-1;-4.609497508E-1;2.675455477E0
2.068343417E0;3.384202943E0;7.267761612E-1;-1.250448702E0;3.680306388E0
2.078327417E0;4.319729674E0;8.466815042E-1;-1.340351543E0;4.601464580E0
2.088311417E0;3.752739205E0;1.465310488E0;-4.839648302E-1;4.057635805E0
2.098295417E0;3.033661780E0;2.185524319E0;8.840054512E-1;3.842015875E0
2.108279417E0;2.662377035E0;2.602023245E0;1.401267105E0;3.977728741E0
2.118263417E0;2.434178334E0;2.839024343E0;1.217377435E0;3.932847722E0
2.128247417E0;2.472415324E0;2.839278697E0;5.670809542E-1;3.807351030E0
2.138231417E0;2.336690924E0;1.550800290E0;5.617032699E-1;2.860177717E0
2.148215417E0;1.575760884E0;-2.311462820E-2;7.148285455E-1;1.730472912E0
2.158199417E0;1.170262325E0;-8.038985968E-1;7.932087171E-1;1.626329282E0
2.168183417E0;1.326282411E0;-7.752870011E-1;4.330882068E-1;1.596139205E0
2.178167417E0;1.138776823E0;-8.475018686E-1;1.338894709E-1;1.425832550E0
2.188151417E0;8.780529857E-1;-1.461672351E0;4.126713377E-1;1.754354793E0
2.198135417E0;6.674871486E-1;-2.139251794E0;9.288676286E-1;2.425846739E0
2.208119417E0;1.402597931E-1;-1.529131093E0;4.729064298E-1;1.606721880E0
2.218103417E0;-1.772972265E-1;-9.520652872E-1;-1.787552297E-1;9.847923892E-1
2.228087417E0;-5.517441460E-1;-1.245522423E0;-1.286580402E-1;1.368320357E0
2.238071417E0;-8.887490049E-1;-1.420802652E0;2.508326511E-1;1.694541823E0
2.248055417E0;-9.355004176E-1;-1.032452808E0;2.886904488E-1;1.422835903E0
2.258039417E0;-6.315434369E-1;-3.083271897E-1;4.369680902E-2;7.041464193E-1
2.268023417E0;-5.237330595E-1;2.616161227E-1;-1.329610062E-1;6.003481843E-1
2.278007417E0;-5.234985861E-1;2.124644279E-1;3.393571937E-1;6.590563009E-1
2.287991417E0;-1.062503988E0;-1.445484334E-1;8.731992120E-1;1.382854236E0
2.297975417E0;-1.656825512E0;-6.201866823E-1;1.059772754E0;2.062236792E0
2.307959417E0;-1.971891910E0;-8.128272951E-1;5.571519434E-1;2.204419244E0
2.317943417E0;-1.741042667E0;-5.660724556E-1;3.632056475E-1;1.866436695E0
2.327927417E0;-1.244799122E0;1.762877047E-2;3.078640902E-1;1.282425798E0
2.337911417E0;-1.038687109E0;5.408709562E-1;3.691020163E-1;1.227863429E0
2.347895417E0;-9.518544951E-1;3.411090195E-1;8.428129864E-1;1.316326735E0
2.357880417E0;-1.069727054E0;-3.164992583E-1;1.013507318E0;1.507210945E0
2.367864417E0;-1.062322432E0;-9.133292377E-1;8.900456981E-1;1.659783296E0
2.377848417E0;-6.869101372E-1;-8.702358431E-1;4.723627118E-1;1.205106838E0
2.387832417E0;4.550709602E-1;-2.901031727E-1;1.511629499E-2;5.398869622E-1
2.397816417E0;1.631680731E0;7.773469752E-1;1.711176697E-1;1.815470072E0
2.407800417E0;2.135338545E0;1.383738906E0;7.456860566E-1;2.651499907E0
2.417784417E0;2.479424382E0;1.145090647E0;4.987406711E-1;2.776242084E0
2.427768417E0;2.611141977E0;1.022405537E0;2.891168205E-1;2.819036013E0
2.437752417E0;2.763271033E0;1.556980796E0;1.825758004E-1;3.176978113E0
2.447736417E0;2.989735450E0;2.213191005E0;-3.215701099E-1;3.733649665E0
2.457720417E0;3.208281859E0;2.742293270E0;-7.609088440E-1;4.288615993E0
2.467704417E0;3.296641181E0;3.778282474E0;-8.739587653E-1;5.089898374E0
2.477688417E0;3.035229419E0;4.082699046E0;-1.013280226E0;5.187271532E0
2.487672417E0;2.218323691E0;4.898748742E0;-1.606763552E0;5.612520677E0
2.497656417E0;2.208228181E0;5.752890708E0;-1.551184452E0;6.354384030E0
2.507640417E0;1.811358359E0;6.580286341E0;-1.501082146E0;6.988163925E0
2.517624417E0;1.124674509E0;7.306897026E0;-1.809993911E0;7.611288646E0
2.527609417E0;8.145405293E-1;7.090329607E0;-1.780251317E0;7.355647148E0
2.537593417E0;1.402062911E-1;5.001971979E0;-4.160564370E-1;5.021203485E0
2.547577417E0;-7.950055665E-1;3.435059102E0;1.152801955E-1;3.527740694E0
2.557561417E0;-8.160391706E-1;2.589965116E0;-3.736840041E-1;2.741072594E0
2.567545417E0;-6.883283794E-1;2.296074117E0;-4.937108231E-1;2.447346050E0
2.577529417E0;-9.369367862E-1;2.226727894E0;-6.046708032E-2;2.416572764E0
2.587513417E0;-1.325980110E0;1.695435846E0;6.296296433E-1;2.242578750E0
2.597497417E0;-1.773276905E0;1.086736019E0;1.231618036E0;2.417103462E0
2.607481417E0;-2.156170127E0;6.943153435E-1;1.525892905E0;2.731207164E0
2.617465417E0;-2.386515926E0;3.746299374E-1;1.781627898E0;3.001666840E0
2.627449417E0;-2.545199418E0;5.877094924E-2;2.134528559E0;3.322304362E0
2.637433417E0;-2.773775264E0;-2.720902401E-1;2.193913904E0;3.546987529E0
2.647417417E0;-3.000081806E0;-5.478256345E-1;2.118319200E0;3.713203469E0
2.657402417E0;-3.151150469E0;-6.202036393E-1;1.918823750E0;3.741161106E0
2.667386417E0;-3.413543102E0;-6.912964261E-1;1.607348420E0;3.835848824E0
2.677370417E0;-3.620077284E0;-9.119919795E-1;1.453261131E0;4.006077486E0
2.687354417E0;-3.679484995E0;-8.517931402E-1;1.328957512E0;4.003784391E0
2.697338000E0;-3.793974062E0;-6.142266154E-1;1.209667296E0;4.029244158E0
2.707322000E0;-3.613125529E0;-1.309121418E-1;1.223702807E0;3.816970348E0
2.717306000E0;-3.306747217E0;2.824883437E-1;1.107963020E0;3.498851079E0
2.727290000E0;-3.039054083E0;1.670081735E-2;1.063720648E0;3.219880471E0
2.737274000E0;-2.893850761E0;-6.422692770E-1;1.192246394E0;3.195048281E0
2.747258000E0;-2.926086461E0;-1.568278202E0;1.152186828E0;3.514116245E0
2.757242000E0;-2.723036050E0;-2.123509920E0;1.018669167E0;3.600264793E0
2.767227000E0;-2.311767460E0;-2.261474388E0;1.148811815E0;3.431953348E0
2.777211000E0;-1.986977434E0;-2.128118110E0;1.275371289E0;3.178606289E0
2.787195000E0;-1.718305476E0;-1.832954172E0;1.201408689E0;2.784901712E0
2.797179000E0;-1.114238983E0;-1.534114090E0;9.596228135E-1;2.125067175E0
2.807163000E0;-6.524726683E-1;-1.013399071E0;9.880975842E-1;1.558536203E0
2.817147000E0;-7.308434844E-2;-6.140669864E-1;1.161722540E0;1.316061870E0
2.827131000E0;6.267127597E-1;-3.159601450E-1;9.862954724E-1;1.210528172E0
2.837115000E0;1.086731341E0;2.518518573E-1;9.181029776E-1;1.444758611E0
2.847099000E0;1.368986966E0;1.029011137E0;8.860964155E-1;1.928252082E0
2.857083000E0;1.805282224E0;1.470410430E0;6.104750419E-1;2.407037706E0
2.867067000E0;2.438410549E0;1.903669814E0;5.731546763E-1;3.146158141E0
2.877052000E0;2.837428054E0;1.994829075E0;3.746673596E-1;3.488655419E0
2.887036000E0;2.982743642E0;2.101848909E0;3.551692343E-1;3.666152432E0
2.897020000E0;2.872565142E0;2.465645710E0;2.058097118E-1;3.791226306E0
2.907004000E0;2.705905463E0;2.509007492E0;-6.911351343E-2;3.690774938E0
2.916988000E0;2.741096930E0;2.308439809E0;-4.800154746E-1;3.615649539E0
2.926972000E0;2.925327492E0;1.870206783E0;-7.825767249E-1;3.559162919E0
2.936956000E0;3.147429886E0;1.610070006E0;-8.561826450E-1;3.637538870E0
2.946940000E0;3.358872805E0;1.431953877E0;-1.070164425E0;3.804966534E0
2.956924000E0;3.689436371E0;1.105538911E0;-9.186566359E-1;3.959556419E0
2.966909000E0;3.843520444E0;1.276362977E0;-9.034714899E-1;4.149459312E0
2.976893000E0;3.656594315E0;1.922865053E0;-7.497223896E-1;4.198830273E0
2.986877000E0;3.094203851E0;2.422386255E0;-4.517529577E-1;3.955519356E0
2.996861000E0;2.480827421E0;2.538520728E0;-5.010408926E-1;3.584638637E0
3.006845000E0;1.730347817E0;2.364112903E0;-1.923704531E-1;2.936007456E0
3.016829000E0;1.182560774E0;1.690275094E0;3.586553442E-1;2.093827484E0
3.026813000E0;7.932712823E-1;1.099154921E0;5.059455371E-1;1.446859272E0
3.036797000E0;6.192739320E-1;7.519121718E-1;6.583438575E-1;1.175707766E0
3.046782000E0;5.434033853E-1;3.877575213E-1;5.718635380E-1;8.790170878E-1
3.056766000E0;4.658336377E-1;-1.413763189E-1;4.965315199E-1;6.953645029E-1
3.066750000E0;-8.324271619E-2;-4.460413975E-1;5.840058661E-1;7.395573876E-1
3.076734000E0;-7.690334040E-1;-7.994664073E-1;6.772116530E-1;1.299682475E0
3.086718000E0;-1.385969619E0;-6.870291281E-1;7.506246150E-1;1.719406328E0
3.096702000E0;-1.870772209E0;-2.232694978E-1;5.818915129E-1;1.971860964E0
3.106686000E0;-2.266154500E0;3.055193567E-1;1.414815505E-1;2.291029315E0
3.116670000E0;-2.731140291E0;5.451604736E-1;1.346473614E-1;2.788271354E0
3.126655000E0;-3.234061064E0;1.839539891E-1;5.054451982E-2;3.239682821E0
3.136639000E0;-3.398535638E0;-1.049312085E-1;2.894024570E-2;3.400278310E0
3.146623000E0;-3.423563476E0;-4.632965308E-1;-2.833771205E-1;3.466371754E0
3.156607000E0;-3.400486270E0;-9.171463001E-1;-2.225532138E-1;3.529021697E0
3.166591000E0;-3.028224455E0;-1.162737544E0;-1.413248817E-1;3.246856120E0
3.176575000E0;-2.854380886E0;-1.230829539E0;-7.111734509E-1;3.188761401E0
3.186559000E0;-3.010736017E0;-1.207718419E0;8.489924152E-2;3.245045921E0
3.196544000E0;-2.797410294E0;-1.198970400E0;3.264348471E-1;3.060979269E0
3.206528000E0;-2.795136020E0;-1.015460215E0;3.406669700E-1;2.993325709E0
3.216512000E0;-2.753320827E0;-1.026319664E0;5.407434869E-1;2.987726752E0
3.226496000E0;-2.593556476E0;-1.162470326E0;6.307508469E-1;2.911308827E0
3.236480000E0;-2.308476647E0;-1.181553299E0;5.116980278E-1;2.643287252E0
3.246464000E0;-2.034681358E0;-9.876520264E-1;3.310821776E-1;2.285825926E0
3.256448000E0;-1.969447189E0;-8.961027557E-1;2.009676143E-1;2.173041730E0
3.266433000E0;-1.781911781E0;-8.804637927E-1;1.481310042E-1;1.993080249E0
3.276417000E0;-1.620097689E0;-6.402473098E-1;-4.102404675E-2;1.742502830E0
3.286401000E0;-1.558862138E0;-5.409516478E-1;-6.470645785E-2;1.651322735E0
3.296385000E0;-1.534010594E0;-6.818701297E-1;-1.775799394E-2;1.678824209E0
3.306369000E0;-1.532565163E0;-9.004712105E-1;3.603639007E-2;1.777892854E0
3.316353000E0;-1.345506887E0;-1.073817181E0;7.945898294E-2;1.723306662E0
3.326337000E0;-1.122023381E0;-9.860908198E-1;1.370166532E-1;1.500028378E0
3.336322000E0;-1.015787074E0;-8.995596296E-1;2.994440997E-1;1.389495475E0
3.346306000E0;-7.428226751E-1;-9.134081751E-1;4.191226073E-1;1.249705478E0
3.356290000E0;-5.657327324E-2;-7.178299212E-1;4.794681752E-1;8.650838469E-1
3.366274000E0;6.222674140E-1;-2.399896109E-1;6.267166335E-2;6.698802022E-1
3.376258000E0;1.217704587E0;4.522195655E-1;-2.444919304E-1;1.321772787E0
3.386242000E0;1.778691719E0;1.110566347E0;-3.991133988E-1;2.134570998E0
3.396226000E0;2.200906297E0;1.314420750E0;-7.184346695E-1;2.662299534E0
3.406211000E0;2.690417358E0;1.391763040E0;-9.765645361E-1;3.182613425E0
3.416195000E0;3.505030977E0;1.538229945E0;-1.083616457E0;3.978142549E0
3.426179000E0;4.582459691E0;1.668762018E0;-1.306540457E0;5.048836644E0
3.436163000E0;5.537375788E0;2.112974991E0;-1.452722018E0;6.102261482E0
3.446147000E0;6.204202786E0;2.795330440E0;-1.390802343E0;6.945526304E0
3.456131000E0;6.281866674E0;3.168561723E0;-1.115385549E0;7.123602826E0
3.466116000E0;5.889482836E0;3.266963931E0;-7.214843579E-1;6.773448241E0
3.476100000E0;5.101486326E0;3.126679287E0;-1.629805382E-1;5.985636872E0
3.486084000E0;4.339289195E0;2.473078106E0;2.102239211E-1;4.998973908E0
3.496068000E0;3.624379958E0;1.665000504E0;5.488022657E-1;4.026107386E0
3.506052000E0;2.933570605E0;8.002078342E-1;9.495515692E-1;3.185563883E0
3.516036000E0;2.334594112E0;8.123887539E-2;9.747062910E-1;2.531201647E0
3.526021000E0;1.918126470E0;-5.078195697E-1;7.255038071E-1;2.112686831E0
3.536005000E0;1.577713269E0;-9.458877039E-1;6.592490796E-1;1.954096225E0
3.545989000E0;1.149441852E0;-1.020998697E0;2.214294521E-1;1.553282303E0
3.555973000E0;6.278667077E-1;-9.861592323E-1;-4.201622057E-1;1.242281334E0
3.565957000E0;1.604054976E-1;-8.886493099E-1;2.416024192E-1;9.347722977E-1
3.575941000E0;-2.434488237E-1;-7.499229491E-1;7.916264606E-1;1.117284302E0
3.585926000E0;-8.873348558E-1;-5.031078833E-1;5.723346774E-1;1.169635700E0
3.595910000E0;-1.466450695E0;-3.808121985E-1;6.859998719E-1;1.663157057E0
3.605894000E0;-1.706164318E0;-2.331208867E-1;1.242216407E0;2.123309593E0
3.615878000E0;-2.074449441E0;-1.502635020E-1;1.271438598E0;2.437719367E0
3.625862000E0;-2.428060977E0;-3.524491096E-1;1.303913742E0;2.778469278E0
3.635847000E0;-2.724305481E0;-7.181719834E-1;1.470572690E0;3.178080456E0
3.645831000E0;-3.094856400E0;-9.647759646E-1;1.972363927E0;3.794620964E0
3.655815000E0;-3.624747455E0;-1.196004692E0;1.145515008E0;3.985150684E0
3.665799000E0;-4.050159291E0;-1.300843515E0;1.115687484E0;4.397811125E0
3.675783000E0;-4.302890570E0;-1.140047423E0;1.723620157E0;4.773409874E0
3.685767000E0;-4.269312349E0;-8.680700344E-1;1.919345030E0;4.760720414E0
3.695752000E0;-4.033057939E0;-6.570785201E-1;1.967148649E0;4.535083498E0
3.705731875E0;-3.904813297E0;-3.759303582E-1;2.237853684E0;4.516290472E0
3.715715875E0;-3.607982903E0;-1.717292154E-1;2.543700484E0;4.417855102E0
3.725699875E0;-3.044659224E0;6.055376530E-2;2.569620607E0;3.984540953E0
3.735683875E0;-2.637750317E0;5.406534398E-1;2.371241244E0;3.587870944E0
3.745668875E0;-2.488918798E0;8.989942038E-1;2.010416290E0;3.323353882E0
3.755652875E0;-2.307613013E0;1.177596488E0;1.821792569E0;3.167134268E0
3.765636875E0;-1.960584857E0;1.658973194E0;1.434497416E0;2.941745719E0
3.775620875E0;-1.410807422E0;2.459723065E0;1.453623805E0;3.186477256E0
3.785604875E0;-7.024511594E-1;3.454887010E0;1.569713109E0;3.859233230E0
3.795589875E0;-4.595975822E-1;4.624404400E0;3.206965359E-1;4.658239180E0
3.805573875E0;-4.406409091E-1;5.665464309E0;6.811646631E-1;5.723253930E0
3.815557875E0;-4.255270261E-1;6.125330279E0;9.806542249E-1;6.217911786E0
3.825541875E0;-4.331003398E-1;5.723231876E0;1.313434617E0;5.887959707E0
3.835525875E0;-3.860536426E-1;4.888896768E0;1.559812603E0;5.146199023E0
3.845509875E0;1.853006029E-1;4.313679267E0;1.784862870E0;4.672033882E0
3.855494875E0;1.131249118E0;3.939760351E0;1.592954767E0;4.397606290E0
3.865478875E0;1.817363157E0;4.141496893E0;1.132761208E0;4.662397807E0
3.875462875E0;2.049385352E0;4.463736947E0;8.866355288E-1;4.991097115E0
3.885446875E0;1.912056475E0;4.313217337E0;9.396089637E-1;4.810682776E0
3.895430875E0;1.495385642E0;4.008871517E0;1.222921911E0;4.450030006E0
3.905415875E0;6.023661232E-1;3.759082557E0;5.386840975E-1;3.844961271E0
3.915399875E0;-5.317925692E-2;3.157754315E0;6.329482305E-1;3.221003540E0
3.925383875E0;-3.070372939E-3;2.392420444E0;1.177804503E0;2.666628668E0
3.935367875E0;6.122935259E-1;2.109652019E0;1.475626731E0;2.646319945E0
3.945351875E0;1.436780754E0;2.300316272E0;1.563101077E0;3.130348042E0
3.955336875E0;2.216825634E0;2.536927362E0;1.682110773E0;3.765609245E0
3.965320875E0;3.501064811E0;2.081554393E0;2.086126331E0;4.576269941E0
3.975304875E0;4.411678017E0;1.924264877E0;2.486568510E0;5.417446003E0
3.985288875E0;4.858848512E0;2.404573297E0;2.173644970E0;5.840814503E0
3.995273875E0;4.670072908E0;1.671653466E0;8.153041756E-1;5.026800889E0
4.005257875E0;4.512598035E0;5.643896270E-1;1.662865393E0;4.842230684E0
4.015241875E0;4.246685963E0;-3.869804263E-2;1.957943816E0;4.676471233E0
4.025225875E0;3.906016070E0;-6.122420704E-1;1.543887126E0;4.244453952E0
4.035209875E0;3.422219201E0;-6.891376340E-1;1.334474799E0;3.737287509E0
4.045194875E0;3.048762215E0;4.986850494E-1;-2.519318180E0;3.986301784E0
4.055178875E0;-3.153588758E0;7.970522089E0;-8.012406864E0;1.173341417E1
4.065162875E0;-1.290607379E0;3.507732975E0;9.622421322E0;1.032283150E1
4.075146875E0;-9.575271714E-1;-3.359296728E0;5.496395577E0;6.512457073E0
4.085130875E0;-6.207141012E-1;-9.425588840E-1;1.198685202E0;1.646374641E0
4.095115875E0;1.181523478E-1;-1.949724823E-1;7.044070530E-1;7.403806740E-1
4.105099875E0;7.794309229E-1;-1.189797288E-1;-1.443886583E-1;8.015714716E-1
4.115083875E0;6.305842012E-1;-4.915643102E-1;2.184775730E0;2.326481656E0
4.125067875E0;8.239890450E-1;-1.341549491E0;1.933490614E0;2.493411105E0
4.135052875E0;1.208782613E0;-1.704606035E0;1.471806160E0;2.555983277E0
4.145036875E0;9.580791485E-1;-1.625102613E0;1.446770722E0;2.377397669E0
4.155020875E0;8.261378968E-1;-1.988144538E0;1.488494114E0;2.617410410E0
4.165004875E0;9.332471931E-1;-2.371732995E0;1.423310523E0;2.919226022E0
4.174988875E0;8.137906238E-1;-2.347393375E0;9.275486429E-1;2.651953492E0
4.184973875E0;3.472655529E-1;-2.618239912E0;7.307103141E-1;2.740385222E0
4.194957875E0;-6.010849983E-2;-3.439438081E0;3.452184427E-1;3.457242126E0
4.204941875E0;4.470488727E-3;-3.965741869E0;-1.584127665E-1;3.968907049E0
4.214925875E0;1.846240801E-1;-3.824595346E0;-5.016501725E-1;3.861770126E0
4.224910875E0;2.840121281E-1;-3.872680508E0;-5.305142216E-1;3.919153295E0
4.234894875E0;5.762509963E-1;-4.084179561E0;-2.806733680E-1;4.134170466E0
4.244878875E0;8.489876461E-1;-3.928688064E0;-2.982185233E-1;4.030422337E0
4.254862875E0;1.123999740E0;-3.447263410E0;-3.726301897E-1;3.644976501E0
4.264846875E0;1.680912532E0;-2.887623476E0;-3.489618301E-1;3.359406293E0
4.274831875E0;2.259279051E0;-2.372054007E0;-3.250665987E-1;3.291906793E0
4.284815875E0;2.873570863E0;-2.058915144E0;-4.770193613E-1;3.567084039E0
4.294799875E0;3.476446279E0;-1.531337832E0;-7.431321390E-1;3.870777656E0
4.304783875E0;3.643773710E0;-7.240934587E-1;-8.810969000E-1;3.818079352E0
4.314768875E0;3.566988659E0;-2.092858815E-1;-8.275293879E-1;3.667698674E0
4.324752875E0;3.570378582E0;1.346847653E-2;-7.153425157E-1;3.641359572E0
4.334736875E0;3.483932469E0;3.112063587E-2;-5.217363815E-1;3.522919641E0
4.344720875E0;3.121024445E0;-2.589433604E-1;-3.106612520E-1;3.147118628E0
4.354705875E0;2.605979471E0;-9.315842450E-1;-3.390836902E-1;2.788181478E0
4.364689875E0;2.321664164E0;-1.659604694E0;-5.788882367E-1;2.911962194E0
4.374673875E0;2.686042471E0;-2.080738122E0;-5.707630920E-1;3.445296184E0
4.384657875E0;3.322266896E0;-1.865481648E0;-7.119955695E-1;3.876134260E0
4.394642875E0;3.956344224E0;-1.392298061E0;-1.341586183E0;4.403522113E0
4.404626875E0;4.243760309E0;-9.210586721E-1;-1.895286953E0;4.738139220E0
4.414610875E0;4.274150920E0;-4.902516103E-1;-2.102527771E0;4.788458599E0
4.424594875E0;4.013520053E0;-1.198679209E-3;-2.051293444E0;4.507343946E0
4.434578875E0;3.297578198E0;2.827731031E-1;-1.755217341E0;3.746300910E0
4.444563875E0;2.726054675E0;5.378502846E-2;-1.262595123E0;3.004731829E0
4.454547875E0;2.552876812E0;-2.973782784E-1;-8.948448734E-1;2.721463064E0
4.464531875E0;2.711251864E0;-4.560278571E-1;-7.364859013E-1;2.846271168E0
4.474516875E0;3.196724253E0;-6.518686509E-1;-1.015449690E0;3.416886998E0
4.484500875E0;3.586456379E0;-7.673745489E-1;-1.420673429E0;3.933172517E0
4.494484875E0;3.594117108E0;-8.333422512E-1;-1.656828436E0;4.044405712E0
4.504468875E0;3.456397638E0;-9.087701637E-1;-1.647113872E0;3.935166064E0
4.514452875E0;3.247950540E0;-8.931148285E-1;-1.524364443E0;3.697367139E0
4.524437875E0;3.014814743E0;-7.472800076E-1;-1.415351147E0;3.413320115E0
4.534421875E0;2.674859379E0;-5.552615386E-1;-1.320368976E0;3.034231749E0
4.544405875E0;2.219222116E0;-6.366384083E-1;-1.243460548E0;2.622298495E0
4.554389875E0;1.744488139E0;-6.503881359E-1;-1.323657596E0;2.284362717E0
4.564374875E0;1.111881970E0;-9.133216363E-1;-1.482665317E0;2.066091568E0
4.574358875E0;3.090651083E-1;-1.523885556E0;-1.606790011E0;2.235961218E0
4.584342875E0;-3.755216378E-1;-2.106435465E0;-1.469170089E0;2.595486009E0
4.594326875E0;-7.109401470E-1;-2.489180753E0;-1.154535947E0;2.834503478E0
4.604311875E0;-7.436722755E-1;-2.595971376E0;-8.311580238E-1;2.825409616E0
4.614295875E0;-5.231144240E-1;-2.526611704E0;-6.824905193E-1;2.668934003E0
4.624279875E0;-4.448631835E-1;-2.438772492E0;-6.748387067E-1;2.569225914E0
4.634263875E0;-6.298559305E-1;-2.541717986E0;-6.285954170E-1;2.692987377E0
4.644248875E0;-9.338140807E-1;-2.677329535E0;-3.709051149E-1;2.859663054E0
4.654232875E0;-1.185806271E0;-2.494188893E0;4.130370811E-2;2.762031996E0
4.664216875E0;-1.411654099E0;-2.269382747E0;2.120247173E-1;2.681010971E0
4.674201875E0;-1.528179751E0;-1.958571661E0;2.620979333E-1;2.498005530E0
4.684185875E0;-1.659634514E0;-1.342896105E0;4.270233285E-1;2.177178356E0
4.694169875E0;-1.537021911E0;-9.418121946E-1;6.827732322E-1;1.927595873E0
4.704154500E0;-1.330389203E0;-1.054385714E0;3.113705193E-1;1.725866816E0
4.714139500E0;-1.131690875E0;-7.820066214E-1;6.574036252E-1;1.524610809E0
4.724123500E0;-9.374946105E-1;-4.742401797E-1;1.225253634E0;1.614015601E0
4.734107500E0;-8.260957968E-1;4.549344277E-1;9.000899720E-1;1.303672335E0
4.744091500E0;-6.002295506E-1;8.255566835E-1;8.808000076E-1;1.348194350E0
4.754076500E0;-6.266794306E-1;1.140848492E0;1.275152311E0;1.822162398E0
4.764060500E0;-7.420707232E-1;1.284073116E0;1.216235766E0;1.918004735E0
4.774044500E0;-8.296257609E-1;1.213076223E0;1.005425223E0;1.780649518E0
4.784028500E0;-9.544252235E-1;1.248418549E0;1.021772576E0;1.874432068E0
4.794013500E0;-1.132024459E0;1.144176142E0;1.068787406E0;1.932077881E0
4.803997500E0;-1.405135623E0;7.902804315E-1;1.170072291E0;1.991988565E0
4.813981500E0;-1.469904646E0;3.856267959E-1;1.203116661E0;1.938251117E0
4.823965500E0;-1.469422835E0;1.618111682E-1;1.182713679E0;1.893197815E0
4.833950500E0;-1.703565230E0;-1.157239991E-1;9.723896241E-1;1.964960081E0
4.843934500E0;-2.011612338E0;-4.656207991E-1;6.132387283E-1;2.153937944E0
4.853918500E0;-2.232557568E0;-6.747762877E-1;3.501906225E-1;2.358446481E0
4.863902500E0;-2.360641996E0;-5.821119529E-1;1.260677236E-1;2.434620716E0
4.873887500E0;-2.418926457E0;-4.265730929E-1;1.030878738E-1;2.458413496E0
4.883871500E0;-2.398434890E0;-1.706831485E-1;1.578251213E-2;2.404552296E0
4.893855500E0;-2.399399680E0;3.104824734E-1;-8.731822550E-2;2.420979691E0
4.903839500E0;-2.298793073E0;6.727940816E-1;-2.467232645E-3;2.395225992E0
4.913824500E0;-2.247099009E0;8.382591748E-1;1.032714763E-1;2.400582720E0
4.923808500E0;-2.202578893E0;9.773030394E-1;1.713564554E-1;2.415747927E0
4.933792500E0;-2.208208593E0;1.236905966E0;2.542977476E-1;2.543774538E0
4.943776500E0;-2.292049479E0;1.420630744E0;4.274554378E-1;2.730274835E0
4.953761500E0;-2.277287014E0;1.377108749E0;5.079148793E-1;2.709325040E0
4.963745500E0;-2.157913182E0;1.207437753E0;5.901697084E-1;2.542202886E0
4.973729500E0;-2.043110704E0;9.966386122E-1;7.113269404E-1;2.381926928E0
4.983713500E0;-1.921593869E0;7.961919665E-1;7.834470829E-1;2.222663712E0
4.993698500E0;-1.819965752E0;5.434396380E-1;7.849229202E-1;2.055165680E0
5.003682500E0;-1.885106074E0;2.488282621E-1;6.722207621E-1;2.016784859E0
5.013666500E0;-2.252921081E0;4.433885157E-2;4.494602644E-1;2.297745386E0
5.023650500E0;-2.651169677E0;-1.271646613E-1;3.894482437E-1;2.682637031E0
5.033635500E0;-2.878492464E0;-1.723127675E-1;2.760322867E-1;2.896826605E0
5.043619500E0;-2.748919920E0;-1.381878322E-1;-1.871664494E-2;2.752454707E0
5.053603500E0;-2.274991981E0;-2.725796521E-2;-4.755707136E-1;2.324327648E0
5.063587500E0;-1.928838569E0;5.149040562E-1;-1.017561704E0;2.240753497E0
5.073572500E0;-1.756174968E0;1.272471070E0;-7.905634367E-1;2.308316203E0
5.083556500E0;-1.276082311E0;1.776034452E0;-6.460318141E-1;2.280359959E0
5.093540500E0;-8.079337603E-1;2.657971158E0;-6.495788813E-1;2.852984466E0
5.103524500E0;-7.833725309E-1;3.235298919E0;-1.946747129E-1;3.334475950E0
5.113509500E0;-1.063824289E0;3.154876900E0;3.763246067E-1;3.350610479E0
5.123493500E0;-1.324633496E0;2.366281636E0;6.482737827E-1;2.788225525E0
5.133477500E0;-6.723982251E-1;1.532942308E0;6.319927955E-1;1.789258614E0
5.143461500E0;-1.971938396E-1;1.655344997E0;5.882089908E-1;1.767778913E0
5.153446500E0;1.446250319E-2;2.138054284E0;3.607824151E-1;2.168328673E0
5.163430500E0;2.217258328E-1;2.567585483E0;-1.069009893E-1;2.579357552E0
5.173414500E0;5.909394944E-1;2.732801485E0;-7.055764230E-1;2.883617785E0
5.183398500E0;1.460657859E0;2.741000451E0;-1.025065947E0;3.270682658E0
5.193383500E0;2.844074584E0;2.840211328E0;-1.175774423E0;4.187840269E0
5.203367500E0;4.413249748E0;3.125539080E0;-1.715353363E0;5.673464994E0
5.213351500E0;5.490467670E0;3.671919867E0;-1.905387726E0;6.874498755E0
5.223335500E0;6.369556782E0;4.137534235E0;-1.563165396E0;7.754606966E0
5.233320500E0;6.992509782E0;4.561823990E0;-1.291939960E0;8.448345402E0
5.243304500E0;6.852344422E0;4.862125291E0;-1.106350504E0;8.474603109E0
5.253288500E0;6.059798779E0;4.608147971E0;-5.865949401E-1;7.635462172E0
5.263272500E0;5.051144723E0;3.743237772E0;-1.750643941E-1;6.289398984E0
5.273257500E0;4.348446227E0;2.953056743E0;-2.376190766E-1;5.261747955E0
5.283241500E0;4.140412819E0;2.913417884E0;-1.045470464E0;5.169529047E0
5.293225500E0;3.751557775E0;3.345791414E0;-1.807417628E0;5.341840919E0
5.303209500E0;2.970879641E0;3.148912155E0;-1.871996616E0;4.716581912E0
5.313194500E0;2.169745608E0;2.349939837E0;-1.778575652E0;3.659691871E0
5.323178500E0;1.656314465E0;1.705991240E0;-1.749839949E0;2.952240432E0
5.333162500E0;1.385995932E0;1.443100424E0;-1.591194609E0;2.556447504E0
5.343146500E0;1.470032115E0;1.345723234E0;-1.370386059E0;2.418661487E0
5.353130500E0;1.745182203E0;1.282110790E0;-1.114404459E0;2.435439652E0
5.363115500E0;2.534106081E0;1.360996746E0;-1.153234576E0;3.099024969E0
5.373099500E0;3.059542726E0;2.014467534E0;-1.303594630E0;3.888218113E0
5.383083500E0;3.041150894E0;2.605497660E0;-9.890530193E-1;4.124977902E0
5.393067500E0;2.596580071E0;2.414133494E0;-5.437793247E-1;3.586915743E0
5.403052500E0;1.974353880E0;1.446508766E0;-1.740306795E-1;2.453721160E0
5.413036500E0;1.588283865E0;3.495050365E-1;-4.281908713E-2;1.626847529E0
5.423020500E0;1.346014425E0;-4.672773153E-1;2.867244322E-2;1.425105270E0
5.433004500E0;1.092420098E0;-1.090631434E0;-1.689958613E-2;1.543743564E0
5.442989500E0;1.112267302E0;-1.688775283E0;-2.736169481E-1;2.040580001E0
5.452973500E0;1.605152498E0;-1.966829683E0;-9.963608694E-1;2.727208926E0
5.462957500E0;1.811131779E0;-1.739584079E0;-1.596797411E0;2.975922220E0
5.472941500E0;1.603853831E0;-1.473510039E0;-1.623726178E0;2.716627624E0
5.482926500E0;1.385952078E0;-1.463629414E0;-1.596817292E0;2.571555888E0
5.492910500E0;1.152352889E0;-1.587654120E0;-1.514400787E0;2.478300331E0
5.502894500E0;8.771431589E-1;-1.608650302E0;-1.234943640E0;2.209575007E0
5.512878500E0;7.501673627E-1;-1.686933410E0;-1.040564650E0;2.119261710E0
5.522863500E0;6.549916488E-1;-1.898620158E0;-9.713026267E-1;2.230964222E0
5.532847500E0;5.536804515E-1;-2.206373736E0;-9.230777156E-1;2.454937795E0
5.542831500E0;4.440153372E-1;-2.583570017E0;-8.388947672E-1;2.752404055E0
5.552815500E0;3.521178648E-1;-2.942194371E0;-7.657420063E-1;3.060531902E0
5.562800500E0;3.072562721E-1;-3.317403767E0;-9.297213221E-1;3.458895186E0
5.572784500E0;2.105208135E-1;-3.579035677E0;-1.172617584E0;3.772114446E0
5.582768500E0;1.959428278E-1;-3.670491393E0;-1.210858959E0;3.870023265E0
5.592752500E0;3.948949251E-1;-3.605769147E0;-1.384449343E0;3.882552399E0
5.602736500E0;4.750380322E-1;-3.400883880E0;-1.653455177E0;3.811244721E0
5.612721500E0;4.004997736E-1;-3.400710803E0;-1.791792113E0;3.864680195E0
5.622705500E0;3.944771415E-1;-3.639001213E0;-1.773661652E0;4.067409212E0
5.632689500E0;4.394869611E-1;-3.841946374E0;-1.691368523E0;4.220714182E0
5.642673500E0;5.623585966E-1;-3.863164165E0;-1.710097155E0;4.262008545E0
5.652658500E0;7.005660170E-1;-3.745390717E0;-1.739186468E0;4.188497814E0
5.662642500E0;8.752998242E-1;-3.680496563E0;-1.708733000E0;4.151141192E0
5.672626500E0;9.862215051E-1;-3.709508108E0;-1.727907774E0;4.209364387E0
5.682610500E0;1.068657013E0;-3.771125482E0;-1.747091319E0;4.291356812E0
5.692595500E0;1.251302395E0;-3.776368096E0;-1.727288554E0;4.337077291E0
5.702579125E0;1.395144924E0;-3.661032937E0;-1.687608179E0;4.265866018E0
5.712563125E0;1.401005003E0;-3.593020463E0;-1.654305362E0;4.196348091E0
5.722547125E0;1.475347526E0;-3.544466938E0;-1.662635890E0;4.183808588E0
5.732532125E0;1.558828078E0;-3.456234208E0;-1.643897903E0;4.132541614E0
5.742516125E0;1.545730900E0;-3.375462525E0;-1.527585089E0;4.014542001E0
5.752500125E0;1.605892902E0;-3.412265486E0;-1.478593608E0;4.050763732E0
5.762484125E0;1.830342514E0;-3.408750139E0;-1.431920110E0;4.125545592E0
5.772469125E0;2.306103846E0;-3.303362848E0;-1.453699088E0;4.282938488E0
5.782453125E0;2.877357812E0;-2.966000724E0;-1.641466046E0;4.446432172E0
5.792437125E0;3.202023584E0;-2.404373907E0;-1.800126734E0;4.390264819E0
5.802421125E0;3.276274160E0;-1.900632185E0;-1.817057347E0;4.200960899E0
5.812406125E0;3.102139692E0;-1.620690304E0;-1.764210797E0;3.919483061E0
5.822390125E0;2.765071391E0;-1.407134201E0;-1.538300697E0;3.462948959E0
5.832374125E0;2.406026038E0;-1.141413918E0;-1.138793780E0;2.896314606E0
5.842358125E0;2.215326701E0;-8.093593115E-1;-7.860868815E-1;2.486094823E0
5.852343125E0;2.276916885E0;-5.163886642E-1;-5.941326588E-1;2.409149512E0
5.862327125E0;2.686496215E0;-4.151476336E-1;-6.351233947E-1;2.791592950E0
5.872311125E0;3.190539360E0;-3.883790803E-1;-7.263762116E-1;3.295148270E0
5.882295125E0;3.699691218E0;-4.051746225E-1;-9.312392592E-1;3.836546382E0
5.892280125E0;3.924019939E0;-4.050372130E-1;-1.285785765E0;4.149124324E0
5.902264125E0;3.731181983E0;-2.041876942E-1;-1.408774930E0;3.993502023E0
5.912248125E0;3.197450185E0;1.427743882E-1;-1.305582098E0;3.456677136E0
5.922232125E0;2.444296649E0;4.933325082E-1;-9.742782748E-1;2.677159171E0
5.932217125E0;1.586666818E0;7.958089739E-1;-5.373064935E-1;1.854594776E0
5.942201125E0;7.556046885E-1;6.686016279E-1;-2.100880830E-1;1.030584099E0
5.952185125E0;3.919648853E-1;2.288360471E-1;5.829637460E-3;4.539123180E-1
5.962170125E0;6.001319021E-1;-2.476056093E-1;9.098972876E-2;6.555501265E-1
5.972154125E0;9.486318022E-1;-6.794967449E-1;-2.190016150E-2;1.167089431E0
5.982138125E0;1.471947078E0;-9.189671230E-1;-2.233075047E-1;1.749569952E0
5.992122125E0;2.125164097E0;-9.786239254E-1;-6.420324647E-1;2.426155995E0
6.002106125E0;2.652535294E0;-6.796856099E-1;-1.282431217E0;3.023664307E0
6.012091125E0;2.541705707E0;-7.960867167E-2;-1.767337303E0;3.096786493E0
6.022075125E0;2.536520104E0;6.625322181E-1;-1.791763462E0;3.175421150E0
6.032059125E0;2.070522451E0;1.446160272E0;-1.564337032E0;2.970789980E0
6.042044125E0;1.289860105E0;1.309944706E0;-1.294624855E0;2.248498997E0
6.052028125E0;7.794589895E-1;1.015249130E0;-8.535554179E-1;1.538455057E0
6.062012125E0;4.875876188E-1;9.587322825E-1;-4.773093101E-1;1.176746979E0
6.071996125E0;1.777840072E-1;1.042263266E0;-1.655826223E-1;1.070204408E0
6.081981125E0;-3.172523797E-2;1.137319697E0;1.997891262E-1;1.155170238E0
6.091965125E0;-2.281840825E-1;1.126375464E0;3.064806390E-1;1.189420045E0
6.101949125E0;-5.666402203E-1;8.827629179E-1;3.865127952E-1;1.117919339E0
6.111933125E0;-8.431556332E-1;4.027252239E-1;5.635501130E-1;1.091186399E0
6.121918125E0;-8.986369389E-1;-4.500601888E-3;8.209128249E-1;1.217155072E0
6.131902125E0;-8.115678048E-1;-1.690476823E-1;8.917309387E-1;1.217539933E0
6.141886125E0;-7.688001001E-1;-2.701524729E-1;9.218230493E-1;1.230363234E0
6.151870125E0;-8.109181792E-1;-4.442340231E-1;1.018392301E0;1.375519916E0
6.161855125E0;-8.664170265E-1;-5.011139828E-1;1.114768010E0;1.498166013E0
6.171839125E0;-9.217919129E-1;-4.121988827E-1;1.145100002E0;1.526716170E0
6.181823125E0;-1.054778062E0;-1.032565659E-1;1.219721291E0;1.615839939E0
6.191807125E0;-1.230142491E0;1.602558088E-1;1.351376760E0;1.834434960E0
6.201791125E0;-1.287687280E0;2.087689877E-1;1.551479005E0;2.027020011E0
6.211776125E0;-1.449768589E0;1.717642987E-1;1.602831592E0;2.168040832E0
6.221760125E0;-1.626180840E0;2.535405332E-1;1.759008529E0;2.408912188E0
6.231744125E0;-1.706075440E0;4.334856713E-1;1.891704072E0;2.584017711E0
6.241729125E0;-1.733938592E0;6.908765960E-1;1.846272376E0;2.625371440E0
6.251713125E0;-1.839969662E0;1.109374099E0;1.823361669E0;2.817950856E0
6.261697125E0;-1.820432360E0;1.565385584E0;1.833456594E0;3.020921894E0
6.271681125E0;-1.792055823E0;2.028855193E0;1.737938672E0;3.216853788E0
6.281665125E0;-1.786779295E0;2.357854044E0;1.630845748E0;3.378122821E0
6.291650125E0;-1.845135677E0;2.547833004E0;1.552148073E0;3.507868630E0
6.301634125E0;-1.833925980E0;2.762548025E0;1.378280092E0;3.590906864E0
6.311618125E0;-1.846464749E0;3.022670184E0;1.170175348E0;3.730318680E0
6.321602125E0;-2.011491301E0;3.147037538E0;1.006715265E0;3.868257766E0
6.331587125E0;-2.150729878E0;3.082183730E0;8.975733304E-1;3.864082483E0
6.341571125E0;-2.333043138E0;3.048861033E0;8.086874664E-1;3.923342873E0
6.351555125E0;-2.493946819E0;2.983437706E0;8.666626096E-1;3.983939678E0
6.361539125E0;-2.603607255E0;2.921978207E0;9.737697132E-1;4.032983367E0
6.371524125E0;-2.613569741E0;3.041834434E0;1.056564971E0;4.147268143E0
6.381508125E0;-2.541046141E0;3.229612502E0;1.059059393E0;4.243691695E0
6.391492125E0;-2.436658723E0;3.428209673E0;9.203188531E-1;4.305451671E0
6.401476125E0;-2.362265768E0;3.758566248E0;7.681981292E-1;4.505246737E0
6.411461125E0;-2.358178564E0;4.109741249E0;4.808506031E-1;4.762582973E0
6.421445125E0;-2.299743830E0;4.355333077E0;2.379023011E-1;4.930957859E0
6.431429125E0;-2.137716315E0;4.616507151E0;4.325799376E-2;5.087616394E0
6.441413125E0;-1.921873366E0;4.869857064E0;4.966274142E-2;5.235606121E0
6.451398125E0;-1.545120304E0;5.088296177E0;7.671079159E-2;5.318274089E0
6.461382125E0;-1.189043582E0;5.444064167E0;1.086061835E-1;5.573459840E0
6.471366125E0;-1.113416864E0;5.809945500E0;4.224262476E-2;5.915821859E0
6.481350125E0;-1.495989075E0;6.100035224E0;6.406925753E-2;6.281123937E0
6.491334125E0;-2.114733834E0;6.261310787E0;1.647838926E-1;6.610844552E0
6.501319125E0;-2.611085844E0;6.344325462E0;2.707379253E-1;6.865969260E0
6.511303125E0;-2.540570177E0;6.208187664E0;3.412272795E-1;6.716585959E0
6.521287125E0;-2.109626291E0;5.887546238E0;4.594228967E-1;6.270948348E0
6.531271125E0;-1.525973597E0;5.313081858E0;3.418212104E-1;5.538436240E0
6.541256125E0;-8.576660836E-1;4.816435733E0;-4.344802827E-2;4.892395324E0
6.551240125E0;-1.217659271E-1;4.543197684E0;-2.707586829E-1;4.552887260E0
6.561224125E0;2.613728786E-1;4.219885250E0;-3.050841777E-1;4.238964928E0
6.571208125E0;2.646923429E-1;3.714388779E0;-4.133336811E-1;3.746677298E0
6.581193125E0;7.774282515E-2;3.074043821E0;-4.622680056E-1;3.109578922E0
6.591177125E0;-6.001231313E-2;2.484674889E0;-3.251939218E-1;2.506583705E0
6.601161125E0;7.993202269E-2;2.191803644E0;-1.685071803E-1;2.199724304E0
6.611145125E0;3.795737582E-1;2.427449359E0;-2.677312870E-1;2.471490779E0
6.621129125E0;4.930518419E-1;2.704990958E0;-3.366755875E-1;2.770095062E0
6.631114125E0;3.834539706E-1;2.521149820E0;-3.009490999E-1;2.567840284E0
6.641098125E0;2.347855890E-1;2.140619457E0;-1.555183947E-1;2.159065053E0
6.651082125E0;8.389058769E-2;1.646153174E0;-8.169035353E-2;1.650312460E0
6.661066125E0;5.105905652E-2;1.067320924E0;-9.880047597E-2;1.073099491E0
6.671051125E0;9.284618318E-2;5.106086916E-1;-1.384830435E-1;5.371398356E-1
6.681035125E0;2.117586690E-1;-1.040400928E-1;-2.202973580E-1;3.227956022E-1
6.691019125E0;3.274715585E-1;-7.891530883E-1;-2.973180155E-1;9.046536469E-1
6.701002625E0;4.125684267E-1;-1.449371563E0;-3.846987697E-1;1.555276110E0
6.710987625E0;5.282000399E-1;-2.142606926E0;-5.005122678E-1;2.262801859E0
6.720971625E0;6.878924695E-1;-2.646307132E0;-5.637207055E-1;2.791759037E0
6.730955625E0;9.180795157E-1;-2.957886543E0;-6.840084565E-1;3.171723564E0
6.740939625E0;1.106360737E0;-3.276395490E0;-9.118686032E-1;3.576353706E0
6.750923625E0;1.142564650E0;-3.536832814E0;-1.108042688E0;3.878453162E0
6.760908625E0;1.206795144E0;-3.675524676E0;-1.197825515E0;4.049768157E0
6.770892625E0;1.344519877E0;-3.676922160E0;-1.181960850E0;4.089562534E0
6.780876625E0;1.506643871E0;-3.559959136E0;-1.142686272E0;4.031006912E0
6.790860625E0;1.679265956E0;-3.454534423E0;-1.152273366E0;4.010171585E0
6.800845625E0;1.821320552E0;-3.423051844E0;-1.140622205E0;4.041721353E0
6.810829625E0;1.909172629E0;-3.473444903E0;-1.127656589E0;4.120845666E0
6.820813625E0;1.982345562E0;-3.593689384E0;-1.170365236E0;4.267792416E0
6.830797625E0;2.168921735E0;-3.668809733E0;-1.271645443E0;4.447636281E0
6.840782625E0;2.297815126E0;-3.547278864E0;-1.341692748E0;4.434329839E0
6.850766625E0;2.367046452E0;-3.388810549E0;-1.382906263E0;4.358827317E0
6.860750625E0;2.343132801E0;-3.250787024E0;-1.418447978E0;4.250868413E0
6.870734625E0;2.334065816E0;-3.221336353E0;-1.409389472E0;4.220337643E0
6.880718625E0;2.380681866E0;-3.193588391E0;-1.406250687E0;4.224238861E0
6.890703625E0;2.438116142E0;-3.017386640E0;-1.427756161E0;4.133705373E0
6.900687625E0;2.555412457E0;-2.691038917E0;-1.503742483E0;4.004130958E0
6.910671625E0;2.752970286E0;-2.370454794E0;-1.603651518E0;3.971095506E0
6.920655625E0;3.011749924E0;-1.990668197E0;-1.782460542E0;4.026234352E0
6.930640625E0;3.195513294E0;-1.553026909E0;-1.960656778E0;4.058001084E0
6.940624625E0;3.186692770E0;-1.114088709E0;-2.064698625E0;3.957168795E0
6.950608625E0;2.988065193E0;-7.444867927E-1;-2.054281810E0;3.701738502E0
6.960592625E0;2.540202095E0;-5.462749529E-1;-1.870207953E0;3.201362334E0
6.970577625E0;2.165996958E0;-6.960689235E-1;-1.574719495E0;2.766910959E0
6.980561625E0;2.320383916E0;-1.101641157E0;-1.594974250E0;3.023530654E0
6.990545625E0;2.917651852E0;-1.344253244E0;-1.832227364E0;3.698211220E0
7.000529625E0;3.726022400E0;-1.116115939E0;-2.092178784E0;4.416578968E0
7.010513625E0;4.217499294E0;-5.731586963E-1;-2.276067869E0;4.826623678E0
7.020498625E0;3.999086494E0;7.970865905E-2;-2.269509047E0;4.598882209E0
7.030482625E0;3.413296057E0;5.977269423E-1;-2.108550403E0;4.056334833E0
7.040466625E0;2.825138960E0;7.924269444E-1;-1.797124189E0;3.440785660E0
7.050450625E0;2.615780866E0;7.774972486E-1;-1.533942182E0;3.130461648E0
7.060435625E0;2.539384947E0;8.282013792E-1;-1.498778197E0;3.062797661E0
7.070419625E0;2.758187757E0;7.377087003E-1;-1.615110891E0;3.280304409E0
7.080403625E0;3.054899745E0;3.735347539E-1;-1.940478036E0;3.638323195E0
7.090387625E0;3.004296771E0;2.313515192E-1;-2.207818583E0;3.735476611E0
7.100372625E0;3.005230279E0;1.385562068E-1;-2.224133484E0;3.741306805E0
7.110356625E0;3.000489064E0;-9.359638095E-3;-2.113045743E0;3.669875275E0
7.120340625E0;2.835017247E0;-2.314094067E-2;-1.814311495E0;3.365944814E0
7.130324625E0;2.598050354E0;3.642756879E-2;-1.460467240E0;2.980630330E0
7.140309625E0;2.183201805E0;-2.364964843E-2;-1.327835724E0;2.555401561E0
7.150293625E0;1.707419715E0;-1.660808051E-1;-1.232071342E0;2.112075924E0
7.160277625E0;1.274498008E0;-1.813274199E-1;-9.987722611E-1;1.629346751E0
7.170261625E0;7.492823866E-1;-1.799755436E-1;-7.549430761E-1;1.078774462E0
7.180246625E0;9.927987456E-2;-3.483385170E-1;-5.065932624E-1;6.227623539E-1
7.190230625E0;-5.126008379E-1;-8.495168191E-1;-2.191722076E-1;1.016107721E0
7.200214625E0;-9.827105445E-1;-1.433349023E0;1.011544919E-1;1.740816379E0
7.210198625E0;-1.174624933E0;-1.946958506E0;3.915318990E-1;2.307311939E0
7.220183625E0;-1.249885030E0;-2.237021332E0;6.317916512E-1;2.639249462E0
7.230167625E0;-1.240086266E0;-2.564243799E0;7.569078867E-1;2.947213898E0
7.240151625E0;-1.165596832E0;-2.893242066E0;8.108696473E-1;3.222883059E0
7.250135625E0;-1.122771240E0;-3.096041046E0;9.178153677E-1;3.418840515E0
7.260119625E0;-1.024168473E0;-2.994548585E0;1.010038822E0;3.322110882E0
7.270104625E0;-1.016161880E0;-2.694798092E0;1.078729573E0;3.075415291E0
7.280088625E0;-1.055580885E0;-2.339747556E0;1.183609765E0;2.826588351E0
7.290072625E0;-1.136253750E0;-1.921717830E0;1.261341626E0;2.564186947E0
7.300056625E0;-1.263137745E0;-1.521795761E0;1.341933946E0;2.390013811E0
7.310041625E0;-1.357124720E0;-1.213039386E0;1.431919963E0;2.315954844E0
7.320025625E0;-1.467335964E0;-9.570705038E-1;1.491318465E0;2.300671542E0
7.330009625E0;-1.605803878E0;-7.794133812E-1;1.570713129E0;2.377652423E0
7.339993625E0;-1.636801722E0;-6.123859119E-1;1.533002096E0;2.324700370E0
7.349978625E0;-1.691177319E0;-2.359953779E-1;1.419521527E0;2.220544057E0
7.359962625E0;-1.719422294E0;3.111233282E-1;1.274225235E0;2.162605073E0
7.369946625E0;-1.700394285E0;8.918266869E-1;9.280137889E-1;2.132581806E0
7.379930625E0;-1.715388885E0;1.467865722E0;6.616567437E-1;2.352653491E0
7.389915625E0;-1.886405910E0;1.959296131E0;6.614463902E-1;2.799085549E0
7.399899625E0;-2.120832480E0;2.186378598E0;7.351749556E-1;3.133474748E0
7.409883625E0;-2.261150452E0;2.224351001E0;8.451613744E-1;3.282504607E0
7.419867625E0;-2.211564310E0;2.372468575E0;9.885185838E-1;3.390692086E0
7.429852625E0;-2.062650930E0;2.647181876E0;1.120158412E0;3.537916846E0
7.439836625E0;-1.765242831E0;2.865969483E0;1.157162808E0;3.559338294E0
7.449820625E0;-1.494946516E0;3.320748959E0;1.161937352E0;3.822608683E0
7.459804625E0;-1.332133720E0;3.945300588E0;1.141884034E0;4.317855501E0
7.469789625E0;-1.257824965E0;4.674921420E0;7.220086339E-1;4.894722708E0
7.479773625E0;-1.479674758E0;5.248301725E0;5.169250001E-1;5.477346059E0
7.489757625E0;-1.900109444E0;5.594555710E0;6.566003640E-1;5.944795499E0
7.499741625E0;-1.921218477E0;5.504034380E0;8.463142991E-1;5.890816818E0
7.509726625E0;-1.546366931E0;5.017799807E0;9.675892062E-1;5.339081799E0
7.519710625E0;-1.030163038E0;4.856119031E0;1.022912783E0;5.068478913E0
7.529694625E0;-5.194245386E-1;5.289607041E0;9.231174767E-1;5.394616796E0
7.539678625E0;-3.565047383E-1;5.618397732E0;8.210660219E-1;5.689256376E0
7.549663625E0;-5.838772273E-1;5.831044593E0;9.756685965E-1;5.940868865E0
7.559647625E0;-1.166477423E0;6.053784918E0;1.059869817E0;6.255581942E0
7.569631625E0;-1.621233510E0;6.279746473E0;1.092472723E0;6.577013799E0
7.579615625E0;-1.555938238E0;6.330885052E0;1.189222945E0;6.626862044E0
7.589600625E0;-9.102354759E-1;5.873569053E0;1.262519255E0;6.076289733E0
7.599584625E0;-2.155616981E-1;5.182393665E0;1.279483051E0;5.342354146E0
7.609568625E0;4.602015996E-1;4.891083627E0;9.893043034E-1;5.011307969E0
7.619552625E0;1.232281988E0;4.977900161E0;7.435461219E-1;5.181782487E0
7.629537625E0;1.661914929E0;4.926621249E0;7.363878143E-1;5.251268911E0
7.639521625E0;1.718235894E0;4.526016811E0;8.068302445E-1;4.907966769E0
7.649505625E0;1.541562274E0;3.836196222E0;9.474736150E-1;4.241523541E0
7.659489625E0;1.398499618E0;3.165260385E0;1.175222811E0;3.654561963E0
7.669474625E0;1.665666502E0;2.819812147E0;1.242187171E0;3.502686741E0
7.679458625E0;2.203830197E0;2.967622742E0;1.017797931E0;3.834001162E0
7.689442625E0;2.465344579E0;3.309364430E0;8.611640342E-1;4.215616244E0
7.699426625E0;2.386245199E0;3.405237132E0;8.841773593E-1;4.251067593E0
7.709416375E0;2.042289755E0;3.183773255E0;1.001801119E0;3.912922829E0
7.719400375E0;1.626694810E0;2.819572411E0;1.184016731E0;3.463815845E0
7.729384375E0;1.293112326E0;2.346420398E0;1.343676124E0;2.997214323E0
7.739368375E0;1.001560214E0;1.665581133E0;1.357915117E0;2.370910550E0
7.749353375E0;7.356744540E-1;8.325815284E-1;1.398643751E0;1.786228778E0
7.759337375E0;5.145058608E-1;-4.836992204E-2;1.387144179E0;1.480278657E0
7.769321375E0;4.009681356E-1;-8.800439626E-1;1.301033403E0;1.621092452E0
7.779305375E0;3.711420733E-1;-1.647092822E0;1.256622631E0;2.104699893E0
7.789289375E0;4.200970092E-1;-2.260087429E0;1.153440544E0;2.571945134E0
7.799274375E0;5.785170847E-1;-2.603237711E0;9.184046209E-1;2.820460183E0
7.809258375E0;7.183555859E-1;-2.700248866E0;6.304011834E-1;2.864399473E0
7.819242375E0;8.005738699E-1;-2.832485402E0;4.543228821E-1;2.978305115E0
7.829226375E0;8.890077442E-1;-3.082400662E0;3.618619573E-1;3.228385461E0
7.839211375E0;9.836922920E-1;-3.361165498E0;3.919762874E-1;3.524021771E0
7.849195375E0;1.081519133E0;-3.658536760E0;4.209877595E-1;3.838203428E0
7.859179375E0;1.241251324E0;-3.999457499E0;4.245757572E-1;4.209112699E0
7.869163375E0;1.324110755E0;-4.243900350E0;4.515898935E-1;4.468544831E0
7.879148375E0;1.493991373E0;-4.356449896E0;4.327489952E-1;4.625790485E0
7.889132375E0;1.758783704E0;-4.450511715E0;3.536537091E-1;4.798483676E0
7.899116375E0;2.041824609E0;-4.457394472E0;2.768844453E-1;4.910608742E0
7.909100375E0;2.299860190E0;-4.286406099E0;5.640691996E-2;4.864752397E0
7.919085375E0;2.430981662E0;-3.973119301E0;-8.300590396E-2;4.658566174E0
7.929069375E0;2.474964125E0;-3.653984118E0;-1.825383782E-1;4.417054179E0
7.939053375E0;2.396660260E0;-3.617118593E0;-2.033204790E-1;4.343830859E0
7.949037375E0;2.465693365E0;-3.778480695E0;-2.336079232E-1;4.517868169E0
7.959021375E0;2.649133676E0;-3.821397504E0;-1.961015797E-1;4.653970772E0
7.969006375E0;2.975320017E0;-3.805453901E0;-1.824962052E-1;4.833974913E0
7.978990375E0;3.528558711E0;-3.704857818E0;-3.541716993E-1;5.128560775E0
7.988974375E0;4.103203770E0;-3.481795312E0;-5.892729283E-1;5.413540648E0
7.998958375E0;4.627925593E0;-3.012351603E0;-8.034390056E-1;5.580096031E0
8.008943375E0;4.947904530E0;-2.362418380E0;-9.602401333E-1;5.566402874E0
8.018927375E0;5.007228625E0;-1.665819114E0;-9.230040407E-1;5.357166069E0
8.028911375E0;4.700481353E0;-1.079120021E0;-8.675572336E-1;4.900171479E0
8.038895375E0;4.276934779E0;-8.985638487E-1;-6.986990742E-1;4.425807101E0
8.048880375E0;3.819901201E0;-9.937354696E-1;-5.528356019E-1;3.985571800E0
8.058864375E0;3.449234506E0;-1.215992814E0;-4.358398334E-1;3.683179817E0
8.068848375E0;3.506471439E0;-1.475184681E0;-5.419222856E-1;3.842550137E0
8.078832375E0;3.949124959E0;-1.604611630E0;-8.834218260E-1;4.353251722E0
8.088817375E0;4.352215927E0;-1.380692507E0;-1.253526092E0;4.734915304E0
8.098801375E0;4.548573614E0;-1.098690067E0;-1.498265980E0;4.913394218E0
8.108785375E0;4.347232345E0;-8.037968552E-1;-1.588337514E0;4.697588158E0
8.118769375E0;3.748921558E0;-3.510656583E-1;-1.432076669E0;4.028461683E0
8.128754375E0;3.034451154E0;-8.292638183E-2;-1.090544311E0;3.225532125E0
8.138738375E0;2.492519513E0;-4.248703837E-2;-8.473727182E-1;2.632963957E0
8.148722375E0;2.203365636E0;-1.581034487E-1;-8.985146590E-1;2.384773662E0
8.158706375E0;2.218192713E0;-4.719843239E-1;-1.123453464E0;2.530868586E0
8.168691375E0;2.357821007E0;-8.169267780E-1;-1.521429141E0;2.922573505E0
8.178675375E0;2.343601748E0;-1.078804271E0;-1.826293609E0;3.160954944E0
8.188659375E0;2.387473992E0;-1.317762433E0;-1.994073615E0;3.378292390E0
8.198643375E0;2.481323265E0;-1.392885121E0;-2.167470456E0;3.577013039E0
8.208627375E0;2.457481535E0;-1.261102914E0;-2.193749013E0;3.527340469E0
8.218612375E0;2.354104517E0;-1.026700902E0;-2.137077799E0;3.341111243E0
8.228596375E0;2.291023000E0;-7.389524031E-1;-2.033626667E0;3.151265533E0
8.238580375E0;2.199891513E0;-3.915090948E-1;-2.034194724E0;3.021713126E0
8.248564375E0;1.934999195E0;-2.515454632E-1;-1.989081262E0;2.786384983E0
8.258549375E0;1.443976922E0;-1.572684664E-1;-2.035844954E0;2.500893320E0
8.268533375E0;6.842727506E-1;-3.545394892E-1;-1.990934830E0;2.134888508E0
8.278517375E0;-1.064354047E-1;-6.957508349E-1;-1.677369704E0;1.819056581E0
8.288501375E0;-8.563244399E-1;-1.000609456E0;-1.340588501E0;1.879278681E0
8.298486375E0;-1.292517080E0;-1.272875698E0;-1.227235841E0;2.190187378E0
8.308470375E0;-1.571157371E0;-1.377391169E0;-9.492345040E-1;2.294948378E0
8.318454375E0;-1.791218501E0;-1.332468765E0;-5.468526578E-1;2.298474398E0
8.328438375E0;-1.913519449E0;-1.267051871E0;-3.717705028E-1;2.324906542E0
8.338423375E0;-1.924736747E0;-1.116149268E0;-1.710731578E-1;2.231516695E0
8.348407375E0;-1.882803440E0;-6.823841000E-1;1.242122559E-1;2.006495836E0
8.358391375E0;-2.012612797E0;-4.464185429E-1;3.229534149E-1;2.086671679E0
8.368375375E0;-2.113457386E0;-5.430583996E-1;4.662335873E-1;2.231364674E0
8.378360375E0;-2.106373485E0;-5.265897167E-1;6.001699090E-1;2.252622895E0
8.388344375E0;-2.079151772E0;-2.630679864E-1;7.529297335E-1;2.226876746E0
8.398328375E0;-1.931600209E0;-3.950016367E-1;8.213583827E-1;2.135821915E0
8.408312375E0;-1.810937067E0;-1.086126155E-1;7.965262811E-1;1.981349004E0
8.418297375E0;-1.752516950E0;4.808954805E-1;8.275514612E-1;1.996851909E0
8.428281375E0;-1.676478004E0;7.649695891E-1;9.214404953E-1;2.060293561E0
8.438265375E0;-1.709801286E0;1.160682247E0;1.092285319E0;2.337453943E0
8.448249375E0;-1.738758452E0;1.422244576E0;1.142868412E0;2.520358862E0
8.458234375E0;-1.774013654E0;1.734905137E0;1.272557609E0;2.788623880E0
8.468218375E0;-1.695382052E0;1.992306587E0;1.388917347E0;2.961873939E0
8.478202375E0;-1.612825799E0;2.224006600E0;1.469690784E0;3.115670620E0
8.488186375E0;-1.429161247E0;2.456061539E0;1.471794466E0;3.200143607E0
8.498171375E0;-1.226371037E0;2.740295277E0;1.494825771E0;3.353760309E0
8.508155375E0;-1.051453335E0;3.115553790E0;1.517562962E0;3.621495116E0
8.518139375E0;-8.862297320E-1;3.591744016E0;1.534192443E0;4.004968747E0
8.528123375E0;-8.509523106E-1;4.008773868E0;1.573699448E0;4.389865341E0
8.538108375E0;-7.562993377E-1;4.207556981E0;1.526988381E0;4.539517370E0
8.548092375E0;-5.681236589E-1;4.479637281E0;1.536630439E0;4.769816324E0
8.558076375E0;-5.601960039E-1;4.818369992E0;1.605263887E0;5.109538246E0
8.568060375E0;-7.819820631E-1;5.143267606E0;1.542406319E0;5.426206305E0
8.578045375E0;-1.114677524E0;5.340094825E0;1.520286302E0;5.663072414E0
8.588029375E0;-1.504665758E0;5.457910373E0;1.564787414E0;5.873786201E0
8.598013375E0;-1.832847168E0;5.375718986E0;1.615087648E0;5.904760069E0
8.607997375E0;-1.759910755E0;5.091423853E0;1.524613680E0;5.598600681E0
8.617982375E0;-1.108043273E0;4.723100722E0;1.215464518E0;5.001279269E0
8.627966375E0;-2.727813810E-1;4.658077345E0;8.813133931E-1;4.748558469E0
8.637950375E0;3.070425564E-1;5.015634583E0;5.453098699E-1;5.054525522E0
8.647934375E0;5.126376754E-1;5.407327280E0;3.710935414E-1;5.444235127E0
8.657919375E0;3.040055126E-1;5.801188710E0;2.879285932E-1;5.816279969E0
8.667903375E0;-1.027086818E-1;6.108397912E0;2.989859703E-1;6.116573120E0
8.677887375E0;-4.967455280E-1;6.039793115E0;3.834992865E-1;6.072308350E0
8.687871375E0;-4.908310694E-1;5.656340899E0;5.404748073E-1;5.703264023E0
8.697856375E0;-1.356232435E-1;5.155596460E0;7.252745962E-1;5.208127472E0
8.707836417E0;1.118163049E-1;4.625672661E0;7.669988653E-1;4.690163932E0
8.717820417E0;4.403070331E-1;4.216595022E0;6.783637007E-1;4.293450963E0
8.727804417E0;8.665351403E-1;3.850686792E0;6.770024689E-1;4.004622861E0
8.737789417E0;1.012342479E0;3.469293965E0;7.607625175E-1;3.693182573E0
8.747773417E0;9.498936313E-1;3.005019779E0;7.443085988E-1;3.238276868E0
8.757757417E0;9.026820427E-1;2.539597201E0;8.495538028E-1;2.825974253E0
8.767741417E0;1.377023379E0;2.304844356E0;7.168430574E-1;2.778914332E0
8.777726417E0;1.784026426E0;2.682038298E0;1.444111700E-1;3.224427748E0
8.787710417E0;1.748438517E0;3.091281998E0;7.996418238E-2;3.552387353E0
8.797694417E0;1.493084178E0;3.009491730E0;8.182125807E-2;3.360511204E0
8.807678417E0;1.031084560E0;2.510690321E0;2.126573861E-1;2.722484971E0
8.817663417E0;6.484749269E-1;1.864526798E0;5.392444070E-1;2.046402805E0
8.827647417E0;4.923232788E-1;1.270055001E0;8.675047548E-1;1.614926133E0
8.837631417E0;4.122193480E-1;6.565511012E-1;1.018332659E0;1.279838093E0
8.847615417E0;2.654875642E-1;-6.633958519E-2;1.055446033E0;1.090344403E0
8.857599417E0;1.881014192E-1;-8.481333679E-1;1.124873387E0;1.421285506E0
8.867584417E0;1.758778149E-1;-1.614942491E0;1.130710151E0;1.979261908E0
8.877568417E0;1.443326712E-1;-2.230699908E0;9.555837031E-1;2.431047966E0
8.887552417E0;1.508838916E-1;-2.697331690E0;7.171330062E-1;2.795110721E0
8.897536417E0;1.643044209E-1;-3.067482076E0;3.829668975E-1;3.095659198E0
8.907521417E0;2.232262284E-1;-3.299369785E0;7.510989703E-2;3.307765473E0
8.917505417E0;2.903642508E-1;-3.349842950E0;-2.021720128E-1;3.368476319E0
8.927489417E0;3.428892043E-1;-3.361971245E0;-4.320425054E-1;3.406917138E0
8.937473417E0;5.245034301E-1;-3.370161440E0;-4.959350308E-1;3.446598836E0
8.947458417E0;7.443604928E-1;-3.289587393E0;-4.439358882E-1;3.401843152E0
8.957442417E0;1.003446525E0;-3.267063918E0;-4.194933573E-1;3.443339404E0
8.967426417E0;1.296292042E0;-3.280058185E0;-3.940473711E-1;3.548862929E0
8.977410417E0;1.520104746E0;-3.340014365E0;-3.577431786E-1;3.687057713E0
8.987395417E0;1.638038116E0;-3.438673266E0;-3.408247717E-1;3.824108291E0
8.997379417E0;1.689762585E0;-3.567195066E0;-3.735282489E-1;3.964807887E0
9.007363417E0;1.704454592E0;-3.742869397E0;-4.626667857E-1;4.138634719E0
9.017347417E0;1.794318987E0;-3.822529525E0;-5.291040925E-1;4.255733043E0
9.027331417E0;1.929042052E0;-3.800616499E0;-5.827510536E-1;4.301800530E0
9.037316417E0;2.205397251E0;-3.838779522E0;-6.865742147E-1;4.480110423E0
9.047300417E0;2.637927487E0;-3.758613026E0;-8.130401337E-1;4.663353682E0
9.057284417E0;3.026337558E0;-3.536965545E0;-8.087552941E-1;4.724714744E0
9.067268417E0;3.314637157E0;-3.435160843E0;-7.898910069E-1;4.838499489E0
9.077253417E0;3.515508603E0;-3.427311541E0;-8.032133031E-1;4.974979070E0
9.087237417E0;3.763678176E0;-3.353264741E0;-7.585230339E-1;5.097549904E0
9.097221417E0;4.140205827E0;-3.125625034E0;-8.744908619E-1;5.260757589E0
9.107205417E0;4.497571861E0;-2.744324593E0;-1.071595751E0;5.376596281E0
9.117189417E0;4.816136940E0;-2.274269266E0;-1.212165227E0;5.462309059E0
9.127174417E0;4.920431972E0;-1.919095938E0;-1.258538325E0;5.429318440E0
9.137158417E0;4.812048275E0;-1.572243783E0;-1.274621676E0;5.220384998E0
9.147142417E0;4.493812978E0;-1.246141058E0;-1.215960070E0;4.819313386E0
9.157126417E0;4.014743291E0;-1.116615876E0;-1.095342609E0;4.308685430E0
9.167111417E0;3.506333444E0;-1.077396846E0;-8.692470058E-1;3.769714650E0
9.177095417E0;3.447467186E0;-1.171487902E0;-7.377185675E-1;3.715056202E0
9.187079417E0;3.902623807E0;-1.367058554E0;-8.848286661E-1;4.228740172E0
9.197063417E0;4.518355789E0;-1.254294416E0;-1.106201912E0;4.817932771E0
9.207048417E0;4.888991785E0;-7.006987488E-1;-1.286076372E0;5.103646916E0
9.217032417E0;4.792133828E0;3.822909594E-3;-1.428982176E0;5.000655087E0
9.227016417E0;4.154875030E0;6.740582496E-1;-1.218816946E0;4.382106318E0
9.237000417E0;3.160185002E0;1.030072407E0;-7.914147913E-1;3.416746374E0
9.246984417E0;2.257148618E0;9.019353533E-1;-4.473587751E-1;2.471505035E0
9.256969417E0;1.795675834E0;5.164605850E-1;-7.954778753E-2;1.870163385E0
9.266953417E0;1.803806972E0;1.120577949E-1;-5.648644209E-2;1.808166823E0
9.276937417E0;2.211000053E0;-2.710196149E-1;-3.497080810E-1;2.254832280E0
9.286921417E0;2.720517362E0;-4.713744593E-1;-6.069911977E-1;2.826985481E0
9.296905417E0;3.052547702E0;-5.795526266E-1;-7.619014089E-1;3.199128393E0
9.306890417E0;3.116794277E0;-6.757691449E-1;-9.551099324E-1;3.329159876E0
9.316874417E0;3.035544291E0;-6.823145181E-1;-1.113997420E0;3.304704601E0
9.326858417E0;2.790262073E0;-5.811214346E-1;-1.121573145E0;3.062872978E0
9.336842417E0;2.481295491E0;-5.116144127E-1;-1.007120769E0;2.726328825E0
9.346827417E0;2.070573322E0;-3.553820729E-1;-7.457936454E-1;2.229299994E0
9.356811417E0;1.640034063E0;-1.795440191E-1;-5.156542540E-1;1.728539005E0
9.366795417E0;1.038605248E0;-1.604663086E-1;-4.069849205E-1;1.126981377E0
9.376779417E0;3.835750079E-1;-3.368195021E-1;1.080309637E-1;5.217737564E-1
9.386763417E0;-2.059114534E-1;-6.661364418E-1;4.519220884E-1;8.308855876E-1
9.396748417E0;-6.439965445E-1;-9.714950001E-1;6.351969235E-1;1.327406952E0
9.406732417E0;-9.503549767E-1;-1.171934044E0;8.318645136E-1;1.722963306E0
9.416716417E0;-1.173481802E0;-1.347589665E0;9.881807609E-1;2.041949721E0
9.426700417E0;-1.367387168E0;-1.478771363E0;1.099386616E0;2.294594375E0
9.436684417E0;-1.511812810E0;-1.589738653E0;1.088726850E0;2.449116802E0
9.446669417E0;-1.617148061E0;-1.567298208E0;1.137454037E0;2.522973090E0
9.456653417E0;-1.767614461E0;-1.486939924E0;1.111752162E0;2.563482805E0
9.466637417E0;-1.858419381E0;-1.241761494E0;1.050993744E0;2.469874907E0
9.476621417E0;-1.902204502E0;-8.264197326E-1;1.098652060E0;2.346995503E0
9.486606417E0;-1.839339917E0;-3.887223119E-1;1.125741041E0;2.191248333E0
9.496590417E0;-1.700546898E0;-6.493017232E-1;9.597093523E-1;2.057788745E0
9.506574417E0;-1.810596759E0;-2.937641144E-1;9.788543057E-1;2.079113688E0
9.516558417E0;-1.842802053E0;3.547318625E-1;1.097594883E0;2.174044303E0
9.526542417E0;-1.866192085E0;7.374069840E-1;9.340296967E-1;2.213335364E0
9.536527417E0;-2.016533355E0;1.058278790E0;1.285460221E0;2.615103966E0
9.546511417E0;-2.055272328E0;1.680337751E0;1.362303014E0;2.983881499E0
9.556495417E0;-1.960977205E0;2.494860739E0;1.306497334E0;3.431719246E0
9.566479417E0;-2.042511950E0;3.079769999E0;1.300152228E0;3.917554611E0
9.576463417E0;-2.148664057E0;3.230405384E0;1.293151941E0;4.089562094E0
9.586448417E0;-2.184862999E0;3.354100308E0;1.367366703E0;4.230048097E0
9.596432417E0;-2.049661925E0;3.561986366E0;1.365452032E0;4.330510377E0
9.606416417E0;-1.905077823E0;3.841903689E0;1.129424494E0;4.434540016E0
9.616400417E0;-1.822561331E0;4.175324205E0;9.633603537E-1;4.656514275E0
9.626384417E0;-1.890443412E0;4.353483018E0;9.189275081E-1;4.834358122E0
9.636369417E0;-1.927592527E0;4.326007537E0;8.117712879E-1;4.805093837E0
9.646353417E0;-1.843423027E0;4.369338328E0;7.269173715E-1;4.797680142E0
9.656337417E0;-1.638067644E0;4.495372723E0;7.003675041E-1;4.835509918E0
9.666321417E0;-1.436511782E0;4.762149013E0;5.621948746E-1;5.005765916E0
9.676305417E0;-1.300402635E0;5.176300281E0;4.423059037E-1;5.355442664E0
9.686290417E0;-1.518986759E0;5.421337209E0;5.356742433E-1;5.655542839E0
9.696274417E0;-1.822780017E0;5.384748257E0;6.045877728E-1;5.716954360E0
9.706258417E0;-1.594760826E0;5.144235320E0;5.915709937E-1;5.418152394E0
9.716242417E0;-1.007858834E0;5.064947661E0;5.651252067E-1;5.195078511E0
9.726226417E0;-5.479957885E-1;5.253325068E0;2.164289863E-1;5.286261927E0
9.736211417E0;-3.553282785E-1;5.475489442E0;-5.564064234E-2;5.487288830E0
9.746195417E0;-4.735379291E-1;5.770263371E0;7.112787008E-2;5.790098161E0
9.756179417E0;-9.649636602E-1;5.900086176E0;9.786981851E-2;5.979276734E0
9.766163417E0;-1.666476341E0;5.551523711E0;1.492650899E-1;5.798175487E0
9.776147417E0;-2.071282589E0;4.869144874E0;4.170060249E-1;5.307794023E0
9.786132417E0;-1.954089770E0;4.197655306E0;6.723070085E-1;4.678757699E0
9.796116417E0;-1.370368663E0;3.686402836E0;6.803863987E-1;3.991290743E0
9.806100417E0;-5.494406354E-1;3.332063321E0;3.805813797E-1;3.398436873E0
9.816084417E0;2.573727983E-1;3.012400135E0;8.333963379E-2;3.024523239E0
9.826068417E0;9.497497898E-1;2.819032713E0;-1.721866138E-1;2.979701047E0
9.836053417E0;1.371706506E0;2.972315717E0;-4.971640424E-1;3.311104279E0
9.846037417E0;1.508499193E0;3.279914929E0;-7.229427266E-1;3.681855231E0
9.856021417E0;1.351734172E0;3.163755312E0;-6.478997071E-1;3.500900880E0
9.866005417E0;1.033850293E0;2.505750008E0;-3.350418024E-1;2.731278554E0
9.875989417E0;1.156432491E0;1.473011856E0;-1.766575411E-2;1.872808616E0
9.885973417E0;1.141383512E0;1.031710796E0;-4.187644288E-2;1.539135187E0
9.895958417E0;1.179788609E0;1.469380735E0;1.092395393E0;2.178143384E0
9.905942417E0;1.289808649E0;1.427735696E0;5.806330459E-1;2.009768719E0
9.915926417E0;1.264640479E0;8.708439535E-1;8.864883251E-1;1.773004874E0
9.925910417E0;1.030617952E0;3.399962944E-1;1.151081558E0;1.582011250E0
9.935894417E0;8.798176754E-1;9.751226127E-2;1.221142019E0;1.508235927E0
9.945879417E0;8.831231064E-1;-3.729412615E-2;1.099946780E0;1.411091844E0
9.955863417E0;6.951550037E-1;-1.987228864E-1;1.033297877E0;1.261124802E0
9.965847417E0;4.592789090E-1;-6.124613410E-1;1.078212533E0;1.322341967E0
9.975831417E0;3.391648203E-1;-9.799997753E-1;1.059054716E0;1.482237911E0
9.985815417E0;1.672221816E-1;-1.253026155E0;1.024862684E0;1.627384811E0
9.995800417E0;1.172138697E-1;-1.533338749E0;1.067785924E0;1.872173494E0
1.000578442E1;1.635176781E-1;-1.774429391E0;1.106307381E0;2.097439800E0
1.001576842E1;2.248684189E-1;-2.044778330E0;1.049888767E0;2.309534725E0
1.002575242E1;2.934916341E-1;-2.385085112E0;1.078800763E0;2.634118338E0
1.003573642E1;4.461627272E-1;-2.724462771E0;1.087932213E0;2.967381854E0
1.004572042E1;6.666147441E-1;-2.951320120E0;1.038658312E0;3.198980581E0
1.005570542E1;9.643140346E-1;-3.194076049E0;9.411327481E-1;3.466663268E0
1.006568942E1;1.207731283E0;-3.416808187E0;8.766942389E-1;3.728509867E0
1.007567342E1;1.492561729E0;-3.483672853E0;8.550279661E-1;3.885201395E0
1.008565742E1;1.770973394E0;-3.497165303E0;7.936088128E-1;3.999540832E0
1.009564142E1;1.998887920E0;-3.506154227E0;7.220786543E-1;4.100008288E0
1.010562642E1;2.195206431E0;-3.465918952E0;7.164887162E-1;4.164718662E0
1.011561042E1;2.371626576E0;-3.363151798E0;7.657737274E-1;4.185906357E0
1.012559442E1;2.582185981E0;-3.310202921E0;7.148466718E-1;4.258653964E0
1.013557842E1;2.884056967E0;-3.260136137E0;6.862890168E-1;4.406502563E0
1.014556242E1;3.309090781E0;-3.143001205E0;6.222558658E-1;4.606054790E0
1.015554642E1;3.765695173E0;-2.870753090E0;3.631354809E-1;4.749057887E0
1.016553142E1;4.190399788E0;-2.558469089E0;4.898212552E-2;4.909950480E0
1.017551542E1;4.384210721E0;-2.308264977E0;-1.748972368E-1;4.957820075E0
1.018549942E1;4.451288225E0;-2.244719777E0;-3.411908805E-1;4.996913543E0
1.019548342E1;4.709361520E0;-2.202295888E0;-5.631288211E-1;5.229274058E0
1.020546742E1;5.101435456E0;-2.013609747E0;-9.096010530E-1;5.559374245E0
1.021545242E1;5.454683880E0;-1.641432717E0;-1.246689381E0;5.831132995E0
1.022543642E1;5.662544210E0;-1.217840534E0;-1.460318574E0;5.973279906E0
1.023542042E1;5.662272899E0;-7.326362407E-1;-1.731227384E0;5.966174528E0
1.024540442E1;5.321801811E0;-4.502788746E-1;-1.761435124E0;5.623786916E0
1.025538842E1;4.688241962E0;-6.072356844E-1;-1.643964561E0;5.005094140E0
1.026537242E1;4.232631011E0;-1.038930938E0;-1.543419203E0;4.623492793E0
1.027535742E1;4.307931454E0;-1.361790798E0;-1.435602686E0;4.740643697E0
1.028534142E1;4.641816239E0;-1.244888585E0;-1.333121899E0;4.987325895E0
1.029532542E1;4.887943087E0;-1.028625805E0;-1.364655933E0;5.178063778E0
1.030530942E1;4.664808368E0;-8.473650438E-1;-1.160996243E0;4.881226987E0
1.031529342E1;3.919849705E0;-7.375648588E-1;-5.087380211E-1;4.020949888E0
1.032527842E1;2.967670105E0;-8.777699804E-1;1.768291569E-1;3.099808791E0
1.033526242E1;2.229347739E0;-1.042352144E0;5.422975306E-1;2.520034910E0
1.034524642E1;1.959304901E0;-1.261359022E0;7.217943335E-1;2.439444473E0
1.035523042E1;2.242246404E0;-1.637205180E0;6.147060871E-1;2.843584589E0
1.036521442E1;2.779588858E0;-1.806436465E0;2.235567422E-1;3.322544889E0
1.037519842E1;3.229003514E0;-1.694144781E0;-2.696558981E-1;3.656405959E0
1.038518342E1;3.617187590E0;-1.346232526E0;-7.043251920E-1;3.923322833E0
1.039516742E1;3.695447309E0;-8.440742308E-1;-1.020948265E0;3.925700890E0
1.040515142E1;3.504015316E0;-4.169070607E-1;-1.026264407E0;3.674935845E0
1.041513542E1;3.141488238E0;-1.388906676E-1;-8.980643503E-1;3.270284168E0
1.042511942E1;2.808969363E0;3.070431411E-2;-5.940475819E-1;2.871261772E0
1.043510342E1;2.492850173E0;1.661404467E-1;-2.944035074E-1;2.515666524E0
1.044508842E1;2.095426912E0;2.155576050E-1;-2.025968130E-1;2.116205211E0
1.045507242E1;1.517130560E0;7.143309474E-2;-2.551242515E-2;1.519025578E0
1.046505642E1;8.770633444E-1;-2.634065402E-1;2.997398226E-1;9.635699646E-1
1.047504042E1;2.544339877E-1;-6.613142431E-1;5.946605162E-1;9.250374651E-1
1.048502442E1;-2.327121663E-1;-1.073190944E0;7.617623913E-1;1.336478842E0
1.049500842E1;-6.106253153E-1;-1.495045334E0;9.286055271E-1;1.862882726E0
1.050499342E1;-7.665845901E-1;-1.718835819E0;1.147463447E0;2.204250636E0
1.051497742E1;-9.186162901E-1;-1.600897479E0;1.091578099E0;2.144358033E0
1.052496142E1;-1.250323572E0;-1.496517663E0;8.970916660E-1;2.146543176E0
1.053494542E1;-1.529097179E0;-1.575005423E0;8.339698036E-1;2.348251669E0
1.054492942E1;-1.688239093E0;-1.750676832E0;9.733545609E-1;2.619625871E0
1.055491342E1;-1.802273832E0;-1.595425070E0;9.569271009E-1;2.590228097E0
1.056489842E1;-1.863060316E0;-1.289850165E0;8.193565884E-1;2.409575151E0
1.057488242E1;-1.868685923E0;-1.284795831E0;6.831747897E-1;2.368420402E0
1.058486642E1;-1.973842834E0;-9.096834987E-1;4.936033805E-1;2.228726968E0
1.059485042E1;-2.081195959E0;-7.538604641E-1;7.887426138E-1;2.349850448E0
1.060483442E1;-1.954674491E0;-8.087962246E-1;3.432340439E-1;2.143061667E0
1.061481842E1;-1.948999768E0;2.077223361E-2;4.635213563E-1;2.003467901E0
1.062480342E1;-1.940670995E0;6.656575549E-1;3.229542920E-1;2.076921608E0
1.063478742E1;-1.971058390E0;1.222836396E0;4.059110793E-1;2.354817154E0
1.064477142E1;-2.021223407E0;1.805274623E0;6.012072051E-1;2.775934190E0
1.065475542E1;-2.030744428E0;2.404723570E0;4.945174465E-1;3.186089435E0
1.066473942E1;-2.100075449E0;3.049042881E0;5.893665934E-1;3.748910824E0
1.067472342E1;-2.204626588E0;3.523943211E0;7.057823181E-1;4.216240367E0
1.068470842E1;-2.309881732E0;3.740549807E0;7.925973907E-1;4.467155370E0
1.069469242E1;-2.251185043E0;3.938778019E0;8.974065386E-1;4.624623755E0
1.070467575E1;-2.130392092E0;4.294580507E0;1.057080696E0;4.909115174E0
1.071465975E1;-1.902744784E0;4.705504112E0;1.066090963E0;5.186401122E0
1.072464375E1;-1.589598904E0;5.330499544E0;1.150269818E0;5.680155871E0
1.073462775E1;-1.362057431E0;5.867696110E0;1.087078081E0;6.121012730E0
1.074461275E1;-1.291889673E0;5.941670989E0;9.851505876E-1;6.159785285E0
1.075459675E1;-1.233506395E0;5.711157376E0;1.038690910E0;5.934453253E0
1.076458075E1;-1.115028357E0;5.593366971E0;1.082600722E0;5.805261978E0
1.077456475E1;-1.002625576E0;5.826742796E0;9.981388615E-1;5.996037929E0
1.078454875E1;-9.120510364E-1;6.222094097E0;9.272932658E-1;6.356584369E0
1.079453275E1;-1.037529361E0;6.276296616E0;1.001140091E0;6.439770793E0
1.080451675E1;-1.354309285E0;5.919440460E0;1.173461629E0;6.184734529E0
1.081450175E1;-1.656969354E0;5.445045914E0;1.377967705E0;5.856011223E0
1.082448575E1;-1.660522122E0;4.991951020E0;1.536398013E0;5.480641163E0
1.083446975E1;-1.357343990E0;4.697989855E0;1.455121423E0;5.102045643E0
1.084445375E1;-1.173815678E0;4.278916985E0;1.273812422E0;4.616229186E0
1.085443775E1;-1.061831558E0;3.911449302E0;1.145196189E0;4.211697546E0
1.086442175E1;-1.052712241E0;3.765916783E0;9.881469932E-1;4.033207998E0
1.087440675E1;-1.134141735E0;3.883510137E0;7.928507213E-1;4.122686105E0
1.088439075E1;-1.126026970E0;4.048557739E0;6.010984468E-1;4.245005988E0
1.089437475E1;-7.390488821E-1;4.262981569E0;5.151411608E-1;4.357129275E0
1.090435875E1;-1.474065524E-1;4.648737003E0;6.152069011E-1;4.691584375E0
1.091434275E1;4.233050841E-1;4.884500831E0;6.353585990E-1;4.943805833E0
1.092432675E1;8.449425423E-1;4.708471574E0;7.028939398E-1;4.835048330E0
1.093431175E1;1.083458655E0;4.189892542E0;8.403887308E-1;4.408552528E0
1.094429575E1;1.289670655E0;3.607129794E0;9.475928982E-1;3.946209327E0
1.095427975E1;1.435413675E0;3.177003933E0;9.376175483E-1;3.610109843E0
1.096426375E1;1.452008073E0;2.643354288E0;8.767901333E-1;3.140765874E0
1.097424775E1;1.345723819E0;1.841370655E0;7.878563221E-1;2.412951733E0
1.098423175E1;1.401047834E0;1.116545125E0;7.147004914E-1;1.928835100E0
1.099421575E1;1.615546508E0;7.506865954E-1;5.179709208E-1;1.855212861E0
1.100420075E1;1.817566055E0;4.465910357E-1;2.668716732E-1;1.890558226E0
1.101418475E1;1.866046489E0;7.477852070E-1;5.964910602E-1;2.096929613E0
1.102416875E1;2.123250888E0;8.513575226E-1;1.516886877E-1;2.292599708E0
1.103415275E1;1.991658130E0;1.124714854E0;3.418949584E-1;2.312699240E0
1.104413675E1;1.483996435E0;1.094732087E0;7.759723679E-1;2.000704095E0
1.105412075E1;1.182399391E0;5.319913745E-1;7.646381251E-1;1.505242374E0
1.106410575E1;9.095431656E-1;3.976632893E-2;9.132989784E-1;1.289560063E0
1.107408975E1;7.406948733E-1;-4.746114779E-1;1.025529120E0;1.351145783E0
1.108407375E1;6.286622214E-1;-1.084254461E0;9.985043856E-1;1.602446546E0
1.109405775E1;5.237047005E-1;-1.727604303E0;9.038473928E-1;2.018866848E0
1.110404175E1;4.194292572E-1;-2.410307077E0;8.638758266E-1;2.594567893E0
1.111402575E1;3.602355543E-1;-3.074181231E0;7.559164182E-1;3.186184164E0
1.112400975E1;4.039610329E-1;-3.541909951E0;6.768760228E-1;3.628563320E0
1.113399475E1;5.857313794E-1;-3.729492722E0;4.899593226E-1;3.806869758E0
1.114397875E1;7.470461190E-1;-3.718084220E0;1.901724299E-1;3.797156004E0
1.115396275E1;9.045987600E-1;-3.582460392E0;3.551131010E-2;3.695075429E0
1.116394675E1;1.081239052E0;-3.406501300E0;-1.768234558E-3;3.573979872E0
1.117393075E1;1.351074606E0;-3.234647539E0;-2.386478942E-2;3.505555137E0
1.118391475E1;1.637117764E0;-3.043896162E0;-9.378583074E-2;3.457492473E0
1.119389875E1;1.816096357E0;-2.895154105E0;-1.186014505E-1;3.419676824E0
1.120388375E1;1.968420711E0;-2.852321497E0;-1.099311261E-1;3.467348103E0
1.121386775E1;2.079064649E0;-2.922944752E0;-1.090388409E-1;3.588593778E0
1.122385175E1;2.101020944E0;-3.096666698E0;-8.031271297E-2;3.743004646E0
1.123383575E1;2.130717782E0;-3.234584974E0;-1.462435778E-1;3.876065712E0
1.124381975E1;2.284546332E0;-3.244007177E0;-2.200564528E-1;3.973809174E0
1.125380375E1;2.704269996E0;-3.139746644E0;-3.430128729E-1;4.157973429E0
1.126378875E1;3.143952254E0;-2.926515062E0;-5.156238484E-1;4.326059886E0
1.127377275E1;3.435200312E0;-2.719908959E0;-6.255023861E-1;4.426031989E0
1.128375675E1;3.677950686E0;-2.590838106E0;-7.893694353E-1;4.567588799E0
1.129374075E1;3.846269805E0;-2.469075102E0;-8.735073602E-1;4.653293283E0
1.130372475E1;4.005650285E0;-2.291242563E0;-9.747062910E-1;4.716468917E0
1.131370875E1;4.244990271E0;-2.068206954E0;-1.026927774E0;4.832391029E0
1.132369275E1;4.480999390E0;-1.807722852E0;-1.066575404E0;4.948211852E0
1.133367775E1;4.680390905E0;-1.425603801E0;-9.916573691E-1;4.992172830E0
1.134366175E1;4.746024147E0;-1.126184844E0;-9.136192596E-1;4.962634145E0
1.135364575E1;4.524845029E0;-9.514753032E-1;-7.810324752E-1;4.689300535E0
1.136362975E1;4.271899450E0;-9.925098932E-1;-5.507083118E-1;4.420122220E0
1.137361375E1;4.407766814E0;-1.203886739E0;-5.889841124E-1;4.607022233E0
1.138359775E1;4.744206832E0;-1.175706668E0;-8.475596830E-1;4.960659437E0
1.139358175E1;4.956224533E0;-1.090862984E0;-1.022612456E0;5.176860043E0
1.140356675E1;5.117084944E0;-1.093824014E0;-1.211752414E0;5.371159391E0
1.141355075E1;5.012588768E0;-1.010945579E0;-1.222038835E0;5.257512343E0
1.142353475E1;4.522030471E0;-7.776808512E-1;-9.576311787E-1;4.687281148E0
1.143351875E1;3.832986393E0;-5.177311850E-1;-4.550349633E-1;3.894468781E0
1.144350275E1;3.366513070E0;-3.348033822E-1;-1.893562317E-2;3.383173379E0
1.145348675E1;3.234882013E0;-2.506046462E-1;7.957943559E-2;3.245550371E0
1.146347075E1;3.312145074E0;-1.930464095E-1;4.442012787E-2;3.318063449E0
1.147345575E1;3.403941682E0;-1.532666320E-1;-1.446027394E-1;3.410457386E0
1.148343975E1;3.397808537E0;-3.104877359E-1;-5.141574398E-1;3.450487409E0
1.149342375E1;3.259166376E0;-5.147479355E-1;-8.622549784E-1;3.410368683E0
1.150340775E1;2.979763901E0;-5.281468302E-1;-1.042655615E0;3.200790950E0
1.151339175E1;2.635981826E0;-4.811521733E-1;-1.245938745E0;2.955041617E0
1.152337575E1;2.226097272E0;-4.004032946E-1;-1.365231299E0;2.641909984E0
1.153335975E1;1.758925499E0;-3.250303459E-1;-1.300660351E0;2.211601452E0
1.154334375E1;1.266793716E0;-4.520061421E-1;-1.212646891E0;1.810963378E0
1.155332875E1;6.960952359E-1;-6.139570588E-1;-1.125628774E0;1.458948932E0
1.156331275E1;2.632679611E-2;-7.180117697E-1;-1.016040185E0;1.244416192E0
1.157329675E1;-5.916481769E-1;-8.903356469E-1;-8.730862145E-1;1.380226310E0
1.158328075E1;-1.222922350E0;-1.148728784E0;-7.623120296E-1;1.842888093E0
1.159326475E1;-1.787737654E0;-1.549596348E0;-6.319658252E-1;2.448802884E0
1.160324875E1;-2.084102025E0;-1.838838226E0;-4.145558953E-1;2.810100329E0
1.161323275E1;-2.216370721E0;-2.013471168E0;-2.991073000E-1;3.009290696E0
1.162321775E1;-2.215385465E0;-2.087627896E0;-2.693556435E-1;3.055924648E0
1.163320175E1;-2.118588903E0;-2.050182912E0;-2.322712132E-1;2.957299246E0
1.164318575E1;-2.008667096E0;-1.926300877E0;-2.296552420E-1;2.792511433E0
1.165316975E1;-1.954033636E0;-1.681219511E0;-1.772079103E-1;2.583824518E0
1.166315375E1;-1.783465678E0;-1.052014668E0;-3.519556046E-2;2.070923324E0
1.167313775E1;-1.547474978E0;-2.868111902E-1;2.701296687E-2;1.574061361E0
1.168312175E1;-1.393885580E0;2.006378496E-1;4.725032642E-2;1.409044055E0
1.169310575E1;-1.344377789E0;4.665534300E-1;2.875356603E-1;1.451792168E0
1.170309075E1;-1.317059013E0;7.473080742E-1;4.181321986E-1;1.570970508E0
1.171307513E1;-1.352146985E0;1.069582043E0;4.058296569E-1;1.771159204E0
1.172305913E1;-1.375765643E0;1.268511921E0;4.347475004E-1;1.921160843E0
1.173304313E1;-1.387022118E0;1.399097788E0;4.824407534E-1;2.028313106E0
1.174302713E1;-1.468377353E0;1.645120556E0;5.345267272E-1;2.268980501E0
1.175301113E1;-1.600679963E0;1.842435433E0;6.301310420E-1;2.520676456E0
1.176299513E1;-1.658701884E0;2.033874443E0;7.109372234E-1;2.719075012E0
1.177298013E1;-1.759756388E0;2.199775153E0;8.404762928E-1;2.939754015E0
1.178296412E1;-1.871431775E0;2.199606754E0;9.002700663E-1;3.025064124E0
1.179294812E1;-1.945917701E0;2.082919718E0;8.699570771E-1;2.980264345E0
1.180293212E1;-1.979238644E0;1.928001248E0;8.683654650E-1;2.896313692E0
1.181291612E1;-1.962748327E0;1.915440259E0;8.335792096E-1;2.866382158E0
1.182290012E1;-1.945804265E0;1.888238427E0;7.510210562E-1;2.813473160E0
1.183288412E1;-1.889343551E0;1.943976426E0;6.104257791E-1;2.778719674E0
1.184286912E1;-1.708937067E0;2.040511617E0;6.103291538E-1;2.730687685E0
1.185285312E1;-1.542617696E0;2.129839531E0;4.844185741E-1;2.674050698E0
1.186283712E1;-1.291492648E0;2.318699334E0;4.659597914E-1;2.694705621E0
1.187282112E1;-1.002742521E0;2.602311512E0;4.453192663E-1;2.824150672E0
1.188280512E1;-8.444619012E-1;3.008190140E0;3.421629801E-1;3.143151177E0
1.189278912E1;-8.058217460E-1;3.208080715E0;1.760760355E-1;3.312421068E0
1.190277312E1;-8.278031838E-1;3.372028456E0;5.204258743E-1;3.510936785E0
1.191275712E1;-7.670307326E-1;3.443706549E0;5.310806707E-1;3.567842151E0
1.192274212E1;-3.430508798E-1;3.307338370E0;5.021810997E-1;3.362790041E0
1.193272613E1;1.762280631E-1;3.248009596E0;5.117259483E-1;3.292793057E0
1.194271013E1;5.904518366E-1;3.379452081E0;4.104733694E-1;3.455114777E0
1.195269413E1;8.626292002E-1;3.526459853E0;4.085193761E-1;3.653345907E0
1.196267813E1;7.606391412E-1;3.621841389E0;4.313046598E-1;3.725899980E0
1.197266213E1;6.554290205E-1;3.527419966E0;4.873396969E-1;3.620742851E0
1.198264613E1;6.636811960E-1;3.499753865E0;6.826039553E-1;3.626940585E0
1.199263013E1;8.419692332E-1;3.470946388E0;6.689298029E-1;3.633709963E0
1.200261513E1;1.121231083E0;3.577480903E0;6.695132089E-1;3.808382424E0
1.201259913E1;1.369937723E0;3.538916177E0;6.491790779E-1;3.849946824E0
1.202258312E1;1.577007510E0;3.127800783E0;6.673767824E-1;3.565877479E0
1.203256712E1;1.727393804E0;2.600100095E0;7.198271839E-1;3.203523222E0
1.204255112E1;1.841370655E0;2.162229012E0;6.015054131E-1;2.903048217E0
1.205253512E1;1.909686599E0;1.831466056E0;4.358844184E-1;2.681634958E0
1.206251912E1;2.061347001E0;1.308881682E0;3.058631730E-1;2.460868748E0
1.207250312E1;2.204954617E0;3.650288093E-1;6.295930982E-2;2.235852135E0
1.208248812E1;2.451237001E0;3.028851861E-1;3.128364162E-1;2.489612198E0
1.209247212E1;2.380480430E0;4.339394152E-1;-9.415689504E-1;2.596448070E0
1.210245612E1;1.997265610E0;5.487278599E-1;-3.534278604E-1;2.101209993E0
1.211244012E1;1.277901964E0;-4.441702884E-1;7.746132557E-1;1.558956821E0
1.212242412E1;9.613395560E-1;-7.059080333E-1;1.844397466E-1;1.206854554E0
1.213240812E1;6.300339782E-1;-4.693022060E-1;7.971647970E-1;1.119222537E0
1.214239212E1;2.704155976E-1;-4.644519407E-1;7.869649871E-1;9.529711914E-1
1.215237612E1;-1.299362415E-1;-5.719214255E-1;1.154256815E0;1.294714771E0
1.216236112E1;-5.142895138E-1;-1.085078334E0;8.569013409E-1;1.475184260E0
1.217234512E1;-8.251631659E-1;-1.283768476E0;1.153834646E0;1.913188475E0
1.218232913E1;-1.102554492E0;-1.367961949E0;1.025775872E0;2.034493166E0
1.219231313E1;-1.221594447E0;-1.531651828E0;8.705240377E-1;2.143842908E0
1.220229713E1;-1.429140197E0;-1.649545144E0;8.806655216E-1;2.353510706E0
1.221228113E1;-1.550153003E0;-1.906515654E0;7.672119963E-1;2.574177639E0
1.222226513E1;-1.622120533E0;-2.146325170E0;6.604278783E-1;2.770225937E0
1.223224913E1;-1.605347210E0;-2.258667140E0;5.899724380E-1;2.833158025E0
1.224223413E1;-1.471952925E0;-2.271253856E0;4.904107276E-1;2.750589423E0
1.225221813E1;-1.318019711E0;-2.246553463E0;3.550417650E-1;2.628732218E0
1.226220212E1;-1.156589781E0;-2.180723171E0;2.256745672E-1;2.478746151E0
1.227218612E1;-1.060163055E0;-2.162182235E0;8.813866295E-2;2.409719100E0
1.228217012E1;-9.179897609E-1;-2.123980036E0;-2.007805947E-2;2.313957545E0
1.229215412E1;-7.464678293E-1;-1.943993382E0;-9.903067354E-2;2.084737769E0
1.230213812E1;-6.037384647E-1;-1.842802638E0;-2.310363543E-1;1.952895157E0
1.231212212E1;-4.348515809E-1;-1.918220610E0;-2.776328158E-1;1.986390240E0
1.232210612E1;-2.738441125E-1;-1.955137006E0;-3.042504744E-1;1.997528388E0
1.233209112E1;-6.634718657E-2;-1.919791172E0;-4.052155530E-1;1.963211588E0
1.234207512E1;1.476670459E-1;-1.923400074E0;-5.351020567E-1;2.001900999E0
1.235205912E1;4.168687615E-1;-1.968399661E0;-6.425271392E-1;2.112159538E0
1.236204312E1;7.452808446E-1;-2.023329574E0;-7.264019394E-1;2.275294680E0
1.237202712E1;1.186778078E0;-1.963943498E0;-8.764321375E-1;2.456348827E0
1.238201112E1;1.688677927E0;-1.753741942E0;-1.049252443E0;2.651070469E0
1.239199512E1;2.167745275E0;-1.391531491E0;-1.223424625E0;2.851709537E0
1.240197912E1;2.539767062E0;-1.078055243E0;-1.316911079E0;3.057265874E0
1.241196412E1;2.887974602E0;-9.162674636E-1;-1.363094727E0;3.322344142E0
1.242194813E1;3.206931445E0;-7.180106002E-1;-1.346852331E0;3.551613678E0
1.243193213E1;3.479494140E0;-4.800412023E-1;-1.294912684E0;3.743543493E0
1.244191613E1;3.680402131E0;-2.816843516E-1;-1.205273772E0;3.882961599E0
1.245190013E1;3.842707389E0;-1.153755051E-1;-1.054672812E0;3.986482952E0
1.246188413E1;3.831500615E0;7.065950811E-2;-9.579130145E-1;3.950061654E0
1.247186813E1;3.772947182E0;2.133409256E-1;-9.401573595E-1;3.894167517E0
1.248185213E1;3.964319242E0;2.124772918E-1;-1.109822581E0;4.122217827E0
1.249183613E1;4.474636450E0;2.612342995E-1;-1.279853765E0;4.661398972E0
1.250182112E1;5.037948727E0;5.527507442E-1;-1.371728725E0;5.250533350E0
1.251180512E1;5.507341565E0;8.149895954E-1;-1.459799488E0;5.755522018E0
1.252178912E1;5.632164416E0;9.562700200E-1;-1.388423696E0;5.879068695E0
1.253177312E1;4.940582646E0;9.097291070E-1;-8.763689145E-1;5.099508447E0
1.254175712E1;3.849296908E0;4.259065104E-1;4.236431994E-2;3.873019207E0
1.255174112E1;2.904858729E0;-3.059432799E-1;7.816720144E-1;3.023709091E0
1.256172512E1;2.426506495E0;-9.682252371E-1;1.258474005E0;2.899853566E0
1.257170912E1;2.329382781E0;-1.460906950E0;1.289706323E0;3.037040609E0
1.258169312E1;2.534901010E0;-1.895866705E0;9.715243824E-1;3.311177029E0
1.259167812E1;3.028221239E0;-2.147625006E0;6.858748877E-1;3.775293551E0
1.260166212E1;3.594148391E0;-2.211287736E0;2.598350608E-1;4.227908510E0
1.261164612E1;3.847871650E0;-2.225826253E0;-2.973730159E-1;4.455204760E0
1.262163012E1;3.731953231E0;-1.976407422E0;-6.183828163E-1;4.268027474E0
1.263161412E1;3.471289619E0;-1.525657262E0;-6.463230785E-1;3.846454890E0
1.264159812E1;2.942643437E0;-1.118485816E0;-5.593341243E-1;3.197345083E0
1.265158212E1;2.307113076E0;-1.064286804E0;-2.238816281E-1;2.550607796E0
1.266156612E1;1.797335274E0;-1.058441343E0;1.776992957E-1;2.093391794E0
1.267155013E1;1.273099061E0;-1.006174251E0;5.003287017E-1;1.698086174E0
1.268153513E1;7.814838803E-1;-9.562068701E-1;6.266857164E-1;1.384840648E0
1.269151913E1;1.662714243E-1;-9.585673910E-1;4.478081337E-1;1.070994750E0
1.270150313E1;-5.397705102E-1;-1.041627089E0;3.631591621E-1;1.228097624E0
1.271148787E1;-1.193296847E0;-1.195005403E0;4.413712263E-1;1.745509621E0
1.272147187E1;-1.725672968E0;-1.399542176E0;3.657586880E-1;2.251764844E0
1.273145587E1;-2.018206244E0;-1.730885176E0;3.663163662E-1;2.683897840E0
1.274143987E1;-2.256673239E0;-1.932568508E0;5.235523805E-1;3.016869610E0
1.275142387E1;-2.228497846E0;-2.020330537E0;5.272247974E-1;3.053834330E0
1.276140887E1;-2.144874476E0;-1.792835841E0;6.522134905E-1;2.870562542E0
1.277139288E1;-2.100839095E0;-1.472918301E0;5.540540886E-1;2.624878884E0
1.278137688E1;-2.175033830E0;-1.051085545E0;7.460182516E-1;2.528259523E0
1.279136088E1;-1.982587929E0;-1.152266350E0;7.838988534E-1;2.423400514E0
1.280134488E1;-1.980451941E0;-1.398971488E0;2.245038450E-1;2.435100222E0
1.281132888E1;-2.048560894E0;-1.059644115E0;9.295622778E-1;2.486671151E0
1.282131288E1;-2.111596802E0;-1.191398256E0;5.737629329E-1;2.491480436E0
1.283129688E1;-1.995783926E0;-5.892525727E-1;9.538527811E-1;2.289149886E0
1.284128088E1;-1.931271011E0;-1.738587713E-1;8.928721690E-1;2.134772892E0
1.285126488E1;-1.822456666E0;2.775953937E-1;1.134048765E0;2.164364596E0
1.286124987E1;-1.834989004E0;8.208525985E-1;1.223451376E0;2.353256659E0
1.287123387E1;-1.980959480E0;1.124684449E0;1.017389942E0;2.494834236E0
1.288121787E1;-2.180933670E0;1.323131347E0;1.161908555E0;2.803066129E0
1.289120187E1;-2.202720396E0;1.535478246E0;1.173826496E0;2.930450345E0
1.290118587E1;-2.131324723E0;1.878182386E0;1.139609321E0;3.060853403E0
1.291116987E1;-2.157992120E0;2.089044676E0;1.088957523E0;3.194818639E0
1.292115387E1;-2.173701249E0;2.135855146E0;9.606766279E-1;3.195270553E0
1.293113787E1;-2.172697282E0;2.326041682E0;9.339010580E-1;3.317115400E0
1.294112187E1;-2.194313269E0;2.669144018E0;8.506248665E-1;3.558497320E0
1.295110687E1;-2.237204935E0;2.979024813E0;8.645810008E-1;3.824549001E0
1.296109087E1;-2.196037028E0;3.131661115E0;8.679210766E-1;3.922138060E0
1.297107487E1;-2.071342231E0;3.256803224E0;9.224883163E-1;3.968401513E0
1.298105887E1;-1.836166048E0;3.493724216E0;1.006888343E0;4.073258989E0
1.299104287E1;-1.449675618E0;3.832857462E0;9.881430463E-1;4.215303358E0
1.300102687E1;-1.051815863E0;4.277327127E0;9.324190812E-1;4.502360415E0
1.301101087E1;-7.817119217E-1;4.727297269E0;9.357182264E-1;4.882005899E0
1.302099487E1;-8.113380092E-1;5.064180506E0;1.025100081E0;5.230203030E0
1.303097888E1;-1.140264355E0;5.038301899E0;1.153885005E0;5.293027435E0
1.304096288E1;-1.619490455E0;4.655135027E0;1.482987352E0;5.147065469E0
1.305094788E1;-1.706263720E0;4.084211136E0;1.657156026E0;4.726339237E0
1.306093188E1;-1.047313507E0;3.747767610E0;1.516883807E0;4.176549308E0
1.307091588E1;-2.454444784E-1;3.927543179E0;1.171445217E0;4.105864380E0
1.308089988E1;3.693241739E-1;4.190878968E0;8.031383125E-1;4.283094444E0
1.309088388E1;7.356194901E-1;4.344012868E0;5.217868137E-1;4.436647981E0
1.310086788E1;7.201799172E-1;4.553819152E0;2.723327534E-1;4.618451375E0
1.311085188E1;4.202545917E-1;4.756632750E0;2.532709765E-1;4.781873611E0
1.312083587E1;5.878439784E-2;4.720050230E0;4.037512641E-1;4.737651830E0
1.313081987E1;-2.070002049E-1;4.496058016E0;7.849043553E-1;4.568748365E0
1.314080487E1;-5.293191969E-2;4.016044881E0;1.118738269E0;4.169291737E0
1.315078887E1;2.219567978E-1;3.552068319E0;1.245152879E0;3.770525143E0
1.316077287E1;7.292314070E-1;3.112924297E0;1.201389978E0;3.415466879E0
1.317075687E1;1.237898823E0;2.629508666E0;1.145727993E0;3.124004154E0
1.318074087E1;1.613810470E0;2.018156542E0;9.662094095E-1;2.758786089E0
1.319072487E1;2.210073854E0;1.449262805E0;7.623729868E-1;2.750636597E0
1.320070887E1;2.720643954E0;1.350092858E0;5.501798697E-1;3.086640915E0
1.321069287E1;2.934098901E0;1.358647335E0;4.037829852E-1;3.258511875E0
1.322067687E1;2.803898365E0;1.081820265E0;3.208158191E-1;3.022433443E0
1.323066087E1;2.476555445E0;6.811614472E-1;4.221573488E-1;2.602983791E0
1.324064587E1;2.109993496E0;3.459762418E-1;4.998376087E-1;2.195816419E0
1.325062987E1;1.687004161E0;1.581414557E-1;9.445627248E-1;1.939894456E0
1.326061387E1;1.131303497E0;-2.399562818E-1;8.349917507E-1;1.426407320E0
1.327059788E1;6.721690142E-1;-8.682238162E-1;9.568862434E-1;1.456452904E0
1.328058188E1;2.889571184E-1;-1.336005161E0;1.034296508E0;1.714110637E0
1.329056588E1;1.072543073E-1;-1.662598468E0;8.083307862E-1;1.851792594E0
1.330054988E1;4.780566573E-2;-1.849220542E0;6.808288137E-1;1.971149377E0
1.331053388E1;5.760559916E-2;-1.888990964E0;3.910968661E-1;1.929912440E0
1.332051788E1;4.366759121E-2;-1.966004641E0;2.026574779E-1;1.976904439E0
1.333050188E1;-4.543228090E-2;-1.992482003E0;2.047509272E-1;2.003489847E0
1.334048688E1;-9.003308773E-2;-2.053812863E0;6.521754105E-2;2.056819526E0
1.335047088E1;-1.401168287E-1;-2.132174909E0;-1.233587086E-1;2.140331735E0
1.336045487E1;-1.776711559E-1;-2.316824716E0;-1.568060247E-1;2.328912179E0
1.337043887E1;-1.260615841E-1;-2.382298914E0;-1.791902626E-1;2.392352145E0
1.338042287E1;9.828000069E-2;-2.367973235E0;-2.187548260E-1;2.380086107E0
1.339040687E1;3.532811683E-1;-2.419065036E0;-3.144678990E-1;2.464867804E0
1.340039087E1;5.474695390E-1;-2.522768329E0;-3.954179950E-1;2.611596893E0
1.341037487E1;7.987828678E-1;-2.648132633E0;-4.791243954E-1;2.807173079E0
1.342035887E1;1.026598868E0;-2.706987197E0;-5.600861128E-1;2.948793207E0
1.343034287E1;1.217662779E0;-2.628598255E0;-6.441140735E-1;2.967678279E0
1.344032787E1;1.290775194E0;-2.694030937E0;-7.352546239E-1;3.076443182E0
1.345031187E1;1.405376528E0;-2.842518055E0;-7.144525695E-1;3.250451438E0
1.346029587E1;1.606502328E0;-2.789259861E0;-7.260534453E-1;3.299693001E0
1.347027987E1;1.914859338E0;-2.701123610E0;-8.376697755E-1;3.415325122E0
1.348026387E1;2.156626795E0;-2.780712985E0;-8.696891284E-1;3.624881104E0
1.349024787E1;2.439182089E0;-2.812301399E0;-9.016850924E-1;3.830363485E0
1.350023187E1;2.763111112E0;-2.738006092E0;-9.666757250E-1;4.008231821E0
1.351021587E1;2.955360254E0;-2.692928152E0;-1.063754708E0;4.137340975E0
1.352019987E1;3.118975288E0;-2.626585643E0;-1.097990155E0;4.222859383E0
1.353018388E1;3.342695314E0;-2.516942748E0;-1.221816641E0;4.359065113E0
1.354016788E1;3.580753297E0;-2.237592021E0;-1.455388348E0;4.466180411E0
1.355015288E1;3.875551491E0;-2.029644567E0;-1.669111097E0;4.682444691E0
1.356013688E1;4.166829370E0;-1.776030359E0;-1.797483208E0;4.873160855E0
1.357012088E1;4.405753618E0;-1.428982322E0;-1.922537609E0;5.014858550E0
1.358010488E1;4.436961670E0;-1.017989135E0;-2.075340557E0;5.002996019E0
1.359008888E1;4.145406926E0;-8.464803600E-1;-2.044842650E0;4.699181742E0
1.360007288E1;3.623101756E0;-1.076675885E0;-1.830821693E0;4.199762537E0
1.361005688E1;3.154867252E0;-1.471747688E0;-1.519517101E0;3.798441898E0
1.362004087E1;3.200434311E0;-1.694145366E0;-1.422760885E0;3.890649925E0
1.363002487E1;3.602804317E0;-1.553299974E0;-1.624695647E0;4.246478035E0
1.364000887E1;4.105609314E0;-1.257998627E0;-1.885324759E0;4.689673532E0
1.364999387E1;4.540705601E0;-9.805967760E-1;-2.144771565E0;5.116602629E0
1.365997787E1;4.572235834E0;-6.355385470E-1;-2.357348260E0;5.183275083E0
1.366996187E1;4.053538982E0;-1.568117988E-1;-2.309387058E0;4.667872835E0
1.367994587E1;3.285080067E0;2.351867080E-1;-1.837742604E0;3.771519814E0
1.368992987E1;2.588198673E0;2.721083665E-1;-1.332464672E0;2.923743736E0
1.369991387E1;2.170601933E0;8.500799060E-2;-8.865151493E-1;2.346198674E0
1.370990142E1;2.143467636E0;-1.735570550E-2;-6.658388186E-1;2.244570351E0
1.371988542E1;2.371912797E0;-1.058229089E-1;-5.754735359E-1;2.443018337E0
1.372986942E1;2.666168954E0;-2.618301308E-1;-6.210958513E-1;2.750049448E0
1.373985342E1;2.974512224E0;-5.091001099E-1;-8.066128743E-1;3.123704567E0
1.374983742E1;2.986991059E0;-6.042512655E-1;-9.335149225E-1;3.187269253E0
1.375982242E1;2.812254328E0;-4.852814770E-1;-1.016592162E0;3.029477206E0
1.376980642E1;2.419872537E0;-4.395802242E-1;-9.612916088E-1;2.640661929E0
1.377979042E1;1.973862129E0;-4.513085693E-1;-7.779509926E-1;2.169105548E0
1.378977442E1;1.548738561E0;-3.072811228E-1;-5.003007813E-1;1.656295170E0
1.379975842E1;1.168205275E0;-1.482327640E-1;-2.324690683E-1;1.200299290E0
1.380974242E1;6.940738535E-1;-1.068052411E-1;-2.540629819E-2;7.027028914E-1
1.381972642E1;1.953046042E-1;-1.030150759E-1;2.423390222E-1;3.278478244E-1
1.382971042E1;-3.169869161E-1;-2.349516499E-1;5.326205349E-1;6.628481100E-1
1.383969442E1;-8.454436487E-1;-4.977489102E-1;7.778841881E-1;1.252051417E0
1.384967842E1;-1.246481951E0;-8.521948439E-1;1.070931434E0;1.851174611E0
1.385966242E1;-1.483338039E0;-1.170984457E0;1.325372146E0;2.308269408E0
1.386964742E1;-1.535941930E0;-1.294420933E0;1.397206213E0;2.446799617E0
1.387963142E1;-1.582354789E0;-1.299773474E0;1.500757041E0;2.538804730E0
1.388961542E1;-1.594107108E0;-1.430558147E0;1.579087365E0;2.661050730E0
1.389959942E1;-1.580869596E0;-1.475363606E0;1.522187232E0;2.644409276E0
1.390958342E1;-1.517403917E0;-1.264729357E0;1.509856331E0;2.486306726E0
1.391956742E1;-1.558185323E0;-1.070563205E0;1.436472898E0;2.374342322E0
1.392955142E1;-1.580244529E0;-1.059930044E0;1.413677966E0;2.370466169E0
1.393953542E1;-1.590163161E0;-8.538911211E-1;1.445394287E0;2.312339415E0
1.394951942E1;-1.575978400E0;-5.506404841E-1;1.461567686E0;2.218804399E0
1.395950342E1;-1.579532923E0;-1.551307243E-1;1.482035133E0;2.171501308E0
1.396948742E1;-1.609056099E0;-1.656457722E-2;1.624657201E0;2.286667212E0
1.397947242E1;-1.581570677E0;3.561118054E-1;1.560795228E0;2.250391781E0
1.398945642E1;-1.641261393E0;7.807880616E-1;1.563634489E0;2.397565802E0
1.399944042E1;-1.725838444E0;9.196342903E-1;1.598826688E0;2.525963646E0
1.400942442E1;-1.699779158E0;1.053044363E0;1.584918208E0;2.551493159E0
1.401940842E1;-1.669847846E0;1.428475369E0;1.576267545E0;2.704358164E0
1.402939242E1;-1.640162702E0;1.755042363E0;1.535594898E0;2.851027722E0
1.403937642E1;-1.573700910E0;2.035619836E0;1.466921104E0;2.961779903E0
1.404936042E1;-1.544081254E0;2.352204464E0;1.416863091E0;3.150325980E0
1.405934442E1;-1.599574839E0;2.631369250E0;1.332489523E0;3.355334875E0
1.406932842E1;-1.614700416E0;2.802723659E0;1.253900606E0;3.469118631E0
1.407931242E1;-1.570981370E0;2.931762353E0;1.138726830E0;3.515666616E0
1.408929642E1;-1.436978390E0;3.109353987E0;9.463125041E-1;3.553659588E0
1.409928142E1;-1.238896943E0;3.623461652E0;7.343623388E-1;3.899182995E0
1.410926542E1;-1.103176636E0;4.220416762E0;5.327143827E-1;4.394621821E0
1.411924942E1;-1.291838803E0;4.772858773E0;2.113546264E-1;4.949110945E0
1.412923342E1;-1.774509498E0;5.156684627E0;-2.723925412E-3;5.453465661E0
1.413921742E1;-1.990650070E0;5.261420538E0;8.134412527E-2;5.625997747E0
1.414920142E1;-1.420355340E0;5.322259063E0;1.201509261E-1;5.509835485E0
1.415918542E1;-6.531901217E-1;5.204095021E0;7.888390929E-2;5.245520469E0
1.416916942E1;-2.552432424E-1;5.363110635E0;-3.579887617E-1;5.381102188E0
1.417915342E1;-1.845884120E-1;5.855266099E0;-6.200176978E-1;5.890894322E0
1.418913742E1;-5.224814630E-1;6.441345388E0;-6.306093442E-1;6.493195317E0
1.419912142E1;-1.459624071E0;6.686998027E0;-2.213336308E-1;6.848024067E0
1.420910542E1;-2.229922813E0;6.039376209E0;4.815626478E-1;6.455890591E0
1.421909042E1;-2.341451434E0;5.027421985E0;1.171006676E0;5.668211646E0
1.422907442E1;-2.024905398E0;3.660327178E0;1.382203428E0;4.405533252E0
1.423905842E1;-1.241759155E0;2.450202629E0;9.837298603E-1;2.917735965E0
1.424904242E1;-2.027434319E-1;1.876456288E0;6.884676893E-1;2.009024852E0
1.425902642E1;5.538868582E-1;1.615499731E0;3.836406429E-1;1.750374296E0
1.426901042E1;1.201437340E0;1.452005734E0;-4.098395312E-1;1.928662950E0
1.427899442E1;1.719694190E0;1.866036549E0;-1.031427645E0;2.739212204E0
1.428897842E1;1.905271951E0;2.547395632E0;-1.184573093E0;3.394480686E0
1.429896242E1;1.719760264E0;2.840534095E0;-1.099577090E0;3.497896380E0
1.430894642E1;1.656631384E0;2.906296560E0;-8.397803280E-1;3.449089479E0
1.431893042E1;1.504171084E0;2.969784458E0;-2.250509982E-1;3.336584830E0
1.432891442E1;1.325933332E0;2.721257327E0;4.136554241E-1;3.055233453E0
1.433889942E1;1.181499504E0;2.327630956E0;9.069826698E-1;2.763408133E0
1.434888342E1;1.104428524E0;2.059681714E0;1.280584667E0;2.664948070E0
1.435886742E1;1.011726183E0;1.742892433E0;1.446905208E0;2.480886653E0
1.436885142E1;8.837464195E-1;1.411818990E0;1.548100776E0;2.273951760E0
1.437883542E1;7.733223367E-1;1.090039111E0;1.546665577E0;2.044110346E0
1.438881942E1;6.613165820E-1;8.187399995E-1;1.511795414E0;1.842064109E0
1.439880342E1;6.397807020E-1;7.775978208E-1;1.268754580E0;1.619788845E0
1.440878742E1;5.602533066E-1;7.816382468E-1;1.044931351E0;1.420113955E0
1.441877142E1;3.677430868E-1;5.821791959E-1;8.906654298E-1;1.125811930E0
1.442875542E1;2.210048711E-1;2.622353429E-1;7.851889685E-1;8.568151751E-1
1.443873942E1;1.064187402E-1;-1.480585170E-1;7.282486363E-1;7.507278794E-1
1.444872342E1;7.208798289E-2;-5.959797943E-1;6.656939538E-1;8.964022716E-1
1.445870842E1;1.070192492E-1;-1.050678579E0;6.842670496E-1;1.258411694E0
1.446869242E1;1.982808369E-1;-1.550711997E0;6.965236907E-1;1.711481299E0
1.447867642E1;3.162954828E-1;-1.989416308E0;6.272238795E-1;2.109793799E0
1.448866042E1;4.106815302E-1;-2.277728478E0;5.586957546E-1;2.380934121E0
1.449864442E1;5.591537377E-1;-2.550696386E0;4.175498159E-1;2.644438088E0
1.450862842E1;6.931283587E-1;-2.743080890E0;2.349305999E-1;2.839033652E0
1.451861242E1;7.248495036E-1;-2.986272436E0;1.127436002E-1;3.075051380E0
1.452859642E1;7.797308850E-1;-3.281726981E0;-3.080780983E-2;3.373227142E0
1.453858042E1;8.617205429E-1;-3.489289688E0;-7.741940103E-2;3.594954601E0
1.454856442E1;1.060046111E0;-3.619045250E0;-4.792231768E-3;3.771101861E0
1.455854842E1;1.395113787E0;-3.677253113E0;-8.906953968E-2;3.934014021E0
1.456853242E1;1.744062169E0;-3.694874867E0;-1.679634623E-1;4.089262140E0
1.457851642E1;2.034969918E0;-3.611046844E0;-1.431210550E-1;4.147438428E0
1.458850042E1;2.298976091E0;-3.684498398E0;-1.275546706E-1;4.344777290E0
1.459848542E1;2.577683332E0;-3.773091316E0;-8.547225952E-2;4.570336415E0
1.460846942E1;2.852192858E0;-3.834036260E0;-8.229488254E-2;4.779289758E0
1.461845342E1;3.196455866E0;-3.907875484E0;-2.241470186E-1;5.053618781E0
1.462843742E1;3.699039838E0;-3.796195419E0;-4.583562183E-1;5.320158439E0
1.463842142E1;4.247989015E0;-3.434715870E0;-6.703645635E-1;5.503823437E0
1.464840542E1;4.740178685E0;-2.974383878E0;-1.140614018E0;5.711151701E0
1.465838942E1;4.879943511E0;-2.464949307E0;-1.458039476E0;5.658242030E0
1.466837342E1;4.735476647E0;-2.110288196E0;-1.406592164E0;5.371829936E0
1.467835742E1;4.275394038E0;-1.942823939E0;-1.304926625E0;4.874052989E0
1.468834142E1;3.726505672E0;-1.944729547E0;-1.124061793E0;4.351130020E0
1.469832542E1;3.314101844E0;-1.959280928E0;-8.572203796E-1;3.944221034E0
1.470830479E1;3.377024317E0;-1.974827505E0;-7.469244238E-1;3.982729341E0
1.471828979E1;4.122482917E0;-2.024162802E0;-1.056002323E0;4.712455979E0
1.472827379E1;4.872465507E0;-1.832560655E0;-1.371576698E0;5.383346665E0
1.473825779E1;5.235773481E0;-1.292111283E0;-1.542965605E0;5.609244011E0
1.474824179E1;5.333326088E0;-7.464672446E-1;-1.720168984E0;5.653367301E0
1.475822579E1;5.025228694E0;-4.282845730E-1;-1.806815364E0;5.357325159E0
1.476820979E1;4.655444929E0;-2.810709786E-1;-1.495122517E0;4.897709641E0
1.477819379E1;4.477375285E0;-1.693657708E-1;-1.139161497E0;4.623122660E0
1.478817779E1;4.353447058E0;-6.610394239E-2;-9.913415464E-1;4.465381180E0
1.479816179E1;4.220488098E0;-3.268418133E-2;-9.642082000E-1;4.329351625E0
1.480814579E1;4.350037254E0;-1.759088051E-1;-8.358805275E-1;4.433110000E0
1.481812979E1;4.369681852E0;-3.427579343E-1;-9.245417853E-1;4.479551317E0
1.482811379E1;4.370678510E0;-6.786746264E-1;-1.176137096E0;4.576759591E0
1.483809779E1;4.266476449E0;-9.352714992E-1;-1.203560464E0;4.530575224E0
1.484808179E1;4.071903917E0;-1.050779736E0;-1.218201892E0;4.378190883E0
1.485806679E1;3.892830014E0;-1.025419192E0;-1.385698893E0;4.257437194E0
1.486805079E1;3.588875372E0;-8.192510462E-1;-1.435357103E0;3.951132587E0
1.487803479E1;3.025187995E0;-6.340206099E-1;-1.295752490E0;3.351524885E0
1.488801879E1;2.358775273E0;-4.549016833E-1;-1.087742325E0;2.637032365E0
1.489800279E1;1.593354279E0;-3.461990207E-1;-7.597086299E-1;1.798829848E0
1.490798679E1;7.745175076E-1;-5.214780807E-1;-4.646900685E-1;1.042954274E0
1.491797079E1;4.079163820E-2;-7.292126960E-1;-2.739126711E-1;7.800277335E-1
1.492795479E1;-5.356239572E-1;-8.206426835E-1;-6.042512655E-2;9.818343208E-1
1.493793879E1;-9.396405387E-1;-9.050051415E-1;8.037217185E-2;1.307064778E0
1.494792279E1;-1.317884640E0;-1.033908765E0;2.344755404E-1;1.691379921E0
1.495790679E1;-1.588183878E0;-1.155979332E0;4.333288197E-1;2.011564096E0
1.496789079E1;-1.840482463E0;-1.276122656E0;6.195415883E-1;2.323724706E0
1.497787479E1;-1.937173190E0;-1.225029101E0;6.476984167E-1;2.381774445E0
1.498785879E1;-1.953313844E0;-9.097694528E-1;5.131493068E-1;2.215048000E0
1.499784279E1;-1.961495268E0;-6.355742151E-1;3.850764267E-1;2.097546692E0
1.500782779E1;-1.974086078E0;-4.098635048E-1;4.389646585E-1;2.063418015E0
1.501781179E1;-2.193952496E0;-6.096067303E-1;4.091671014E-1;2.313539634E0
1.502779579E1;-2.277852439E0;-5.388367099E-1;3.213536167E-1;2.362673249E0
1.503777979E1;-2.417609664E0;-1.370102030E-1;4.039959700E-1;2.454958457E0
1.504776379E1;-2.488225318E0;-7.893858075E-2;5.474069738E-1;2.548950947E0
1.505774779E1;-2.506674453E0;-1.308682877E-1;9.603746192E-1;2.687538415E0
1.506773179E1;-2.562628214E0;9.560431480E-2;9.247606905E-1;2.726056838E0
1.507771579E1;-2.520905991E0;2.371817780E-1;1.019489092E0;2.729575099E0
1.508769979E1;-2.604301320E0;8.115660506E-1;1.090937390E0;2.937885159E0
1.509768379E1;-2.682028942E0;1.201262509E0;7.317359157E-1;3.028489444E0
1.510766779E1;-2.668866275E0;1.373941312E0;8.097741714E-1;3.109066762E0
1.511765179E1;-2.523727273E0;1.654909379E0;8.732780032E-1;3.141741376E0
1.512763579E1;-2.233001956E0;2.109177809E0;6.635129423E-1;3.142479625E0
1.513761979E1;-1.940675672E0;2.459945844E0;5.524156988E-1;3.181622028E0
1.514760379E1;-1.643044794E0;2.546494576E0;4.845340566E-1;3.069039601E0
1.515758879E1;-1.273920595E0;2.712906919E0;4.771085313E-1;3.034859170E0
1.516757279E1;-8.668894815E-1;3.025149989E0;3.224809599E-1;3.163388025E0
1.517755679E1;-6.328926820E-1;3.464524391E0;2.015814440E-1;3.527622071E0
1.518754079E1;-4.604840201E-1;3.938063489E0;1.958631594E-1;3.969729456E0
1.519752479E1;-4.275150794E-1;4.424757069E0;1.492677212E-1;4.447867479E0
1.520750879E1;-6.677999747E-1;4.839837459E0;1.552317350E-1;4.888157151E0
1.521749279E1;-9.977735567E-1;5.127405279E0;3.225746615E-1;5.233535266E0
1.522747679E1;-1.393616608E0;5.202991067E0;5.478152557E-1;5.414183673E0
1.523746079E1;-1.816849771E0;4.765671961E0;7.281761308E-1;5.151971740E0
1.524744479E1;-1.971774089E0;4.138642282E0;8.833181110E-1;4.668672604E0
1.525742879E1;-1.282789652E0;3.717108319E0;7.367025407E-1;4.000646720E0
1.526741279E1;-2.813101298E-1;3.936614549E0;2.957359417E-1;3.957717681E0
1.527739679E1;3.088119239E-1;4.482281392E0;-2.576854782E-1;4.500290333E0
1.528738079E1;2.475243330E-1;4.926960388E0;-6.669860423E-1;4.978059596E0
1.529736479E1;-3.735289067E-1;5.211134484E0;-8.559107494E-1;5.294150514E0
1.530734979E1;-1.037599527E0;5.257591782E0;-6.966267478E-1;5.404088540E0
1.531733379E1;-1.399390149E0;5.229506435E0;-1.845321326E-1;5.416648637E0
1.532731779E1;-1.328816594E0;4.956525080E0;2.076828673E-2;5.131600698E0
1.533730179E1;-7.825410569E-1;4.568270545E0;2.536077762E-1;4.641743550E0
1.534728579E1;-1.760830522E-2;4.211279318E0;4.759352875E-1;4.238124343E0
1.535726979E1;7.448949283E-1;3.921195441E0;6.189349397E-1;4.039024957E0
1.536725379E1;1.232236379E0;3.628178017E0;6.685802856E-1;3.889612039E0
1.537723779E1;1.575314156E0;3.292904518E0;5.833581407E-1;3.696639227E0
1.538722179E1;1.768492128E0;3.028619726E0;5.442414375E-1;3.549126737E0
1.539720579E1;1.877045687E0;2.897442121E0;3.041993478E-1;3.465690205E0
1.540718979E1;1.871788455E0;2.977438463E0;1.515140752E-1;3.520182998E0
1.541717379E1;1.784131091E0;3.058836967E0;4.651343107E-2;3.541436268E0
1.542715779E1;1.581140907E0;3.050142742E0;1.403369763E-1;3.438469395E0
1.543714179E1;1.160594539E0;2.867896140E0;4.021773398E-1;3.119864511E0
1.544712579E1;7.382717872E-1;2.526640356E0;7.457071066E-1;2.735879348E0
1.545710979E1;3.898332828E-1;2.144572175E0;1.100809829E0;2.441913611E0
1.546709479E1;9.991546690E-2;1.713483862E0;1.335942596E0;2.175029349E0
1.547707879E1;-1.682922220E-1;1.207434245E0;1.434396844E0;1.882475507E0
1.548706279E1;-3.235568476E-1;6.579146719E-1;1.416127803E0;1.594665703E0
1.549704679E1;-4.146003342E-1;1.514955103E-1;1.379641324E0;1.448535298E0
1.550703079E1;-4.926729423E-1;-2.265322441E-1;1.249145358E0;1.361766357E0
1.551701479E1;-5.470450312E-1;-5.973913121E-1;1.043953550E0;1.321352966E0
1.552699879E1;-6.368623567E-1;-1.098796486E0;9.406345654E-1;1.580424236E0
1.553698279E1;-6.702768552E-1;-1.592062336E0;8.570125110E-1;1.928316361E0
1.554696679E1;-6.056528431E-1;-1.944866956E0;8.213326550E-1;2.196340177E0
1.555695079E1;-4.224472976E-1;-2.234051532E0;7.360230211E-1;2.389807074E0
1.556693479E1;-2.123831517E-1;-2.479032910E0;5.985842903E-1;2.559104126E0
1.557691879E1;1.062251973E-1;-2.759305159E0;5.218722562E-1;2.810231202E0
1.558690279E1;3.991601765E-1;-3.014906251E0;5.377706163E-1;3.088395342E0
1.559688679E1;6.989562786E-1;-3.312990289E0;4.477341664E-1;3.415393157E0
1.560687079E1;9.219211364E-1;-3.488528380E0;3.352020161E-1;3.623827981E0
1.561685479E1;1.227895406E0;-3.505311059E0;2.140443456E-1;3.720315542E0
1.562683979E1;1.423601130E0;-3.609215496E0;1.494747126E-1;3.882707736E0
1.563682379E1;1.634541773E0;-3.737820911E0;3.991324022E-2;4.079782475E0
1.564680779E1;1.752995253E0;-3.779679959E0;-8.824376665E-2;4.167344467E0
1.565679179E1;1.849025245E0;-3.871891134E0;-3.503300786E-2;4.290881334E0
1.566677579E1;2.040609850E0;-3.942944745E0;1.124543823E-2;4.439710383E0
1.567675979E1;2.350541224E0;-3.962859777E0;1.591275886E-2;4.607554109E0
1.568674379E1;2.740967414E0;-3.887893794E0;-3.573810898E-2;4.757089208E0
1.569672779E1;3.186378774E0;-3.752892110E0;-1.155294330E-1;4.924485347E0
1.570671179E1;3.513009795E0;-3.600800768E0;-1.468130600E-1;5.032748560E0
1.571669579E1;3.751113094E0;-3.542389423E0;-1.616661572E-1;5.161928730E0
1.572667979E1;3.978756894E0;-3.456433014E0;-2.543795355E-1;5.276565602E0
1.573666379E1;4.224049345E0;-3.371756560E0;-3.515590902E-1;5.416172907E0
1.574664779E1;4.558254265E0;-3.132514223E0;-5.219868616E-1;5.555429559E0
1.575663179E1;4.855909993E0;-2.674630460E0;-7.425963148E-1;5.593295920E0
1.576661579E1;5.092172881E0;-2.240251334E0;-9.387212833E-1;5.641821367E0
1.577659979E1;5.070863289E0;-1.777036080E0;-1.065674787E0;5.477880473E0
1.578658479E1;4.855291943E0;-1.404019389E0;-1.002225481E0;5.152629058E0
1.579656879E1;4.954558661E0;-1.171664488E0;-9.717709887E-1;5.183125317E0
1.580655279E1;5.451198939E0;-9.484008372E-1;-1.025470794E0;5.627310581E0
1.581653679E1;6.068048615E0;-5.076640338E-1;-1.157764852E0;6.198334956E0
1.582652079E1;6.476370209E0;5.888146162E-3;-1.303417898E0;6.606232207E0
1.583650479E1;5.966634507E0;4.959853899E-1;-1.096513075E0;6.086794704E0
1.584648879E1;4.660870268E0;7.371175468E-1;-4.577409451E-1;4.740947237E0
1.585647279E1;3.296835017E0;5.084715343E-1;1.966643011E-1;3.341607588E0
1.586645679E1;2.430511546E0;-1.538402438E-2;6.332616413E-1;2.511701285E0
1.587644079E1;2.352191600E0;-5.138386935E-1;5.487004510E-1;2.469394199E0
1.588642479E1;2.810517705E0;-8.089003050E-1;5.316303089E-2;2.925090731E0
1.589640879E1;3.478113905E0;-6.631239563E-1;-5.720424628E-1;3.586675661E0
1.590639279E1;4.072730128E0;-3.725471592E-1;-1.327804295E0;4.299882130E0
1.591637679E1;4.329513820E0;-1.042149246E-2;-1.994329723E0;4.766775594E0
1.592636079E1;4.154997529E0;4.735361749E-1;-2.220331625E0;4.734777027E0
1.593634479E1;3.696926362E0;1.061370798E0;-2.039542733E0;4.353562571E0
1.594632879E1;2.956419769E0;1.335590009E0;-1.706128942E0;3.665391451E0
1.595631379E1;2.263035302E0;1.297429326E0;-1.364542497E0;2.943913698E0
1.596629779E1;1.695728792E0;1.102343992E0;-8.852824831E-1;2.207800600E0
1.597628179E1;1.118542534E0;8.635969144E-1;-6.553066675E-1;1.557678997E0
1.598626579E1;5.820359391E-1;5.165009308E-1;-4.265168135E-1;8.873869720E-1
1.599624979E1;4.127608001E-2;9.422495663E-2;-2.301977174E-1;2.521369595E-1
1.600623379E1;-5.613894206E-1;-3.781049377E-1;-2.394763716E-1;7.179626439E-1
1.601621779E1;-1.225009806E0;-8.778711373E-1;-3.345741713E-1;1.543776743E0
1.602620179E1;-1.808745530E0;-1.397164114E0;-3.697380106E-1;2.315239545E0
1.603618579E1;-2.340626392E0;-1.768443596E0;-3.041920388E-1;2.949314744E0
1.604616979E1;-2.704679301E0;-1.948979888E0;-1.759380412E-1;3.338377888E0
1.605615379E1;-2.929051584E0;-1.889123695E0;-1.076332068E-1;3.487078494E0
1.606613779E1;-3.076921821E0;-1.698026748E0;1.225567630E-1;3.516498669E0
1.607612179E1;-3.220006696E0;-1.479954255E0;3.137883429E-1;3.557691786E0
1.608610579E1;-3.289699075E0;-1.396664177E0;3.794144216E-1;3.593987497E0
1.609608979E1;-3.238153530E0;-1.132825527E0;3.607122485E-1;3.449499280E0
1.610607379E1;-3.227920318E0;-9.151412898E-1;5.063782310E-1;3.393136023E0
1.611605779E1;-3.198508238E0;-7.927058566E-1;3.534033751E-1;3.314171310E0
1.612604279E1;-3.108436559E0;-6.052388602E-1;3.466906254E-1;3.185731675E0
1.613602679E1;-2.933064528E0;-3.948765063E-1;4.711803317E-1;2.996799274E0
1.614601079E1;-2.818852619E0;-2.157973409E-1;3.445904517E-1;2.848024080E0
1.615599479E1;-2.799641592E0;-2.764651269E-1;4.788451543E-1;2.853720149E0
1.616597879E1;-2.699109828E0;-2.279782605E-1;6.621176505E-1;2.788470501E0
1.617596279E1;-2.601714512E0;2.203400427E-1;6.451678880E-1;2.689555677E0
1.618594679E1;-2.562113074E0;4.664733231E-1;5.042733796E-1;2.652604834E0
1.619593079E1;-2.590423538E0;6.404028457E-1;6.759112322E-1;2.752683401E0
1.620591479E1;-2.518400459E0;1.051058648E0;5.884941888E-1;2.791664479E0
1.621589879E1;-2.369061402E0;1.523465726E0;3.943432403E-1;2.844100268E0
1.622588279E1;-2.150649771E0;1.890722324E0;2.659560724E-1;2.875909939E0
1.623586679E1;-1.807603569E0;2.233504817E0;1.326826787E-1;2.876382993E0
1.624585079E1;-1.435427708E0;2.567683132E0;3.572502583E-3;2.941676755E0
1.625583479E1;-1.107292491E0;2.872692026E0;-9.170159072E-2;3.080075538E0
1.626581879E1;-7.467964429E-1;3.200997398E0;-1.745895271E-1;3.291590918E0
1.627580279E1;-3.840287519E-1;3.551187728E0;-1.894578271E-1;3.576913003E0
1.628578679E1;-2.151301736E-1;3.967151048E0;-1.379670998E-1;3.975374618E0
1.629577179E1;-2.301025540E-1;4.411226612E0;1.841887549E-2;4.417262349E0
1.630575579E1;-3.321534240E-1;4.717501429E0;2.053578682E-1;4.733636813E0
1.631573979E1;-6.053604823E-1;4.867010640E0;4.463146086E-1;4.924779245E0
1.632572379E1;-8.483380204E-1;4.860978652E0;6.399919327E-1;4.975779389E0
1.633570779E1;-9.143694574E-1;4.751061523E0;7.593403284E-1;4.897474332E0
1.634569179E1;-4.658120030E-1;4.590258999E0;6.234139068E-1;4.655760239E0
1.635567579E1;2.489206481E-1;4.679757652E0;2.681392765E-1;4.694037903E0
1.636565979E1;5.580389661E-1;5.055227834E0;-1.076845162E-1;5.087074984E0
1.637564379E1;2.612904328E-1;5.326725166E0;-4.414554262E-1;5.351369599E0
1.638562779E1;-2.160470170E-1;5.348948094E0;-6.607434087E-1;5.393932135E0
1.639561179E1;-6.306210387E-1;5.358108342E0;-6.468586104E-1;5.433731127E0
1.640559579E1;-7.241987085E-1;5.350396450E0;-3.713787393E-1;5.411943099E0
1.641557979E1;-3.882650596E-1;5.206432738E0;-8.704150602E-2;5.221615443E0
1.642556379E1;2.538820106E-1;4.950030577E0;1.237294221E-1;4.958081056E0
1.643554779E1;9.391786087E-1;4.630129409E0;3.743457627E-1;4.739228793E0
1.644553279E1;1.389430586E0;4.361349277E0;5.577132761E-1;4.611174359E0
1.645551679E1;1.577149013E0;3.905585130E0;7.419144563E-1;4.276848288E0
